linear_acc_x_time,linear_acc_x,linear_acc_y_time,linear_acc_y,linear_acc_z_time,linear_acc_z
11.640000000000000568,-0.0074619654095161918814,11.640000000000000568,0.0036049626512971999492,11.640000000000000568,9.8104028173428101667
11.660000000000000142,-0.011352042803411076938,11.660000000000000142,0.0029143161143512074512,11.660000000000000142,9.7953104417794403247
11.679999999999999716,-0.00012031661466127113172,11.679999999999999716,0.018155543848499426651,11.679999999999999716,9.7937888824896432993
11.699999999999999289,0.39394478075372724168,11.699999999999999289,-0.01527608428163259105,11.699999999999999289,9.8195299515963689885
11.720000000000000639,3.0250662020896270654,11.720000000000000639,0.015613592773085129689,11.720000000000000639,9.7972816801464883696
11.740000000000000213,2.991511354313026505,11.740000000000000213,0.0049399929651900648456,11.740000000000000213,9.8086808768021445104
11.759999999999999787,2.9933613818434028353,11.759999999999999787,0.0071002249732067630392,11.759999999999999787,9.8047548623538958168
11.778999999999999915,2.996225101775366273,11.778999999999999915,0.0087602961393406630214,11.778999999999999915,9.7974417649560354704
11.798999999999999488,2.9957097820137561506,11.798999999999999488,0.0042458383235465984099,11.798999999999999488,9.8049745767143541286
11.819000000000000838,2.9901594280998109454,11.819000000000000838,0.0030352245775317988549,11.819000000000000838,9.8054882783685446412
11.839999999999999858,2.9944392897701996858,11.839999999999999858,0.0025164519118271856495,11.839999999999999858,9.803256797296930003
11.859999999999999432,2.9893734850681603632,11.859999999999999432,0.0030977971055437935471,11.859999999999999432,9.810537471259545228
11.878999999999999559,2.9975077829333565127,11.878999999999999559,0.010382255264334163888,11.878999999999999559,9.8073224865829864427
11.899000000000000909,2.9957483633466179818,11.899000000000000909,0.0075682857194160407452,11.899000000000000909,9.8011597321397747606
11.919999999999999929,2.9903351522145875663,11.919999999999999929,0.010137923284833672347,11.919999999999999929,9.7933612983572970734
11.939999999999999503,2.9872751850798806572,11.939999999999999503,0.00020930826294861953896,11.939999999999999503,9.8053494946401809074
11.960000000000000853,2.9790698418472185693,11.960000000000000853,0.0033885827382692437076,11.960000000000000853,9.7965801338084403938
11.978999999999999204,2.982309313464398759,11.978999999999999204,0.0019484938600483985276,11.978999999999999204,9.7943578765772478789
12,2.9809694328433762323,12,0.0030905739756911026692,12,9.7932367003332672084
12.019999999999999574,2.9713500753713777414,12.019999999999999574,0.0062024008130333440486,12.019999999999999574,9.7961077886806329218
12.039999999999999147,1.6529320977369397205,12.039999999999999147,0.056054827217264402428,12.039999999999999147,9.8624093875350329341
12.060000000000000497,-0.010058414212866330362,12.060000000000000497,-0.00064140389851046961112,12.060000000000000497,9.8130384592469539484
12.080000000000000071,-0.0051893354709687715756,12.080000000000000071,0.003049178072214211218,12.080000000000000071,9.8205733449834315962
12.099999999999999645,-0.004759734294305209383,12.099999999999999645,0.010498689408813320287,12.099999999999999645,9.7954833483682079986
12.119999999999999218,-0.012656402507499744242,12.119999999999999218,-0.002908647671192361988,12.119999999999999218,9.7984510027814035737
12.140000000000000568,-0.01403003260749705744,12.140000000000000568,0.00053204100496114653529,12.140000000000000568,9.8043241738417616915
12.160000000000000142,-0.013434155446201009876,12.160000000000000142,0.010192999137581959176,12.160000000000000142,9.7976531326411979705
12.179999999999999716,-0.011341580309325579451,12.179999999999999716,0.0041606615897797991771,12.179999999999999716,9.8123958814116818417
12.199999999999999289,0.00066219257474401261448,12.199999999999999289,0.01210769288348576174,12.199999999999999289,9.7974930784438303277
12.218999999999999417,-0.0097716010205924699883,12.218999999999999417,0.0020713936932331691518,12.218999999999999417,9.8063827628625492849
12.239000000000000767,-0.00048507420385971952194,12.239000000000000767,0.0023344716834634219975,12.239000000000000767,9.8066795624548301902
12.259000000000000341,-0.0075444593367324603791,12.259000000000000341,0.0060992034890932078639,12.259000000000000341,9.8044956798251057251
12.279999999999999361,-0.014883482118096674762,12.279999999999999361,-0.0033251388845542363334,12.279999999999999361,9.8031950809088872489
12.300000000000000711,-0.0054197096811585618314,12.300000000000000711,0.0067167137161368295484,12.300000000000000711,9.8060649861693764962
12.320000000000000284,-0.0017771895581122861864,12.320000000000000284,0.010860919528809919593,12.320000000000000284,9.7946528787455537923
12.339000000000000412,-0.0017023922939886850132,12.339000000000000412,0.012189704535874265959,12.339000000000000412,9.8044084832575624233
12.359999999999999432,-0.010114752787887903648,12.359999999999999432,0.0071551725710932451846,12.359999999999999432,9.7993822801967347402
12.380000000000000782,-0.0044569013765812619254,12.380000000000000782,0.0051510349043067176975,12.380000000000000782,9.8103917365712245413
12.400000000000000355,-0.011503900280910547491,12.400000000000000355,0.0099722578436863395374,12.400000000000000355,9.7992493268527649519
12.419999999999999929,-0.0075082135655701954038,12.419999999999999929,0.011455437212814752537,12.419999999999999929,9.8068567273414029017
12.439999999999999503,-0.009905382320540582694,12.439999999999999503,0.0065368670829875933845,12.439999999999999503,9.7890823110338391899
12.460000000000000853,-0.0093804922590511319314,12.460000000000000853,0.0032969383102520338248,12.460000000000000853,9.7966254076671717144
12.478999999999999204,-0.0022395652782617892634,12.478999999999999204,0.014727476545164715216,12.478999999999999204,9.8015876979310654349
12.5,-0.0085571255734013269151,12.5,-0.000309018944537773775,12.5,9.796566369311593192
12.518000000000000682,-0.0031819647588031451171,12.518000000000000682,0.0025978391046176064691,12.518000000000000682,9.8051018477064566525
12.539999999999999147,-0.0097613714426307909844,12.539999999999999147,0.0052808270060851160085,12.539999999999999147,9.7975765814051900549
12.558999999999999275,-0.0021011829943340821353,12.558999999999999275,0.0010414829779688480893,12.558999999999999275,9.7990981625663664545
12.580000000000000071,-0.0047210970778077633245,12.580000000000000071,-0.004711696497302030745,12.580000000000000071,9.8040323644564342231
12.599000000000000199,-0.0062758168484117558134,12.599000000000000199,0.0033490606761291405805,12.599000000000000199,9.8014108000555335565
12.618999999999999773,-0.0089254035665672047661,12.618999999999999773,-0.0020566242465788172125,12.618999999999999773,9.805307865129249123
12.638999999999999346,-0.0061241460347772258208,12.638999999999999346,-0.0025234170292823022985,12.638999999999999346,9.8021964280760691679
12.660000000000000142,-0.0097399350818345546699,12.660000000000000142,0.0019383987709633422429,12.660000000000000142,9.7960330375259303537
12.67900000000000027,-0.011235968026855128188,12.67900000000000027,0.0029602559790356869004,12.67900000000000027,9.8037881347973563351
12.698999999999999844,-0.0094793960493543463069,12.698999999999999844,0.01452625936647823808,12.698999999999999844,9.7986762352641996188
12.718999999999999417,-0.0026491149235734734978,12.718999999999999417,0.0050545127134058358623,12.718999999999999417,9.7946897838194502128
12.740000000000000213,-0.013222788815450265548,12.740000000000000213,0.0048430311037595966464,12.740000000000000213,9.8038575632474849186
12.759000000000000341,-0.013248581289947734818,12.759000000000000341,0.0092910204677902966108,12.759000000000000341,9.795825312573471777
12.779999999999999361,-0.0070706514811670600346,12.779999999999999361,0.0038316382184594255204,12.779999999999999361,9.797048022746432494
12.800000000000000711,-0.0047245219482395005642,12.800000000000000711,0.0081908887392264286692,12.800000000000000711,9.795192776321782091
12.819000000000000838,-0.010661984098896449408,12.819000000000000838,0.012150792444583611782,12.819000000000000838,9.7963825756681117696
12.839000000000000412,-0.011519841941429100757,12.839000000000000412,0.011136751595628161665,12.839000000000000412,9.800436933313109833
12.858999999999999986,-0.0069883936093657339494,12.858999999999999986,0.010698573018934601567,12.858999999999999986,9.7963813762169422716
12.878999999999999559,-0.0013919799185181432749,12.878999999999999559,0.0092276316399981413163,12.878999999999999559,9.7977365725180067813
12.899000000000000909,-0.0032241685813745300272,12.899000000000000909,0.0087621550183725246258,12.899000000000000909,9.7927497088660668823
12.919999999999999929,-0.0093028048831297477372,12.919999999999999929,0.0058684736341234021439,12.919999999999999929,9.7977596991676421112
12.939999999999999503,-0.00092786205043171609587,12.939999999999999503,0.0076726866367324104631,12.939999999999999503,9.7934345380756653299
12.958999999999999631,-0.0058428034381205482331,12.958999999999999631,0.01617503131390972404,12.958999999999999631,9.8017137801801350605
12.978999999999999204,-0.0093041278904155526319,12.978999999999999204,0.0075869154495081074507,12.978999999999999204,9.801195736065016817
12.999000000000000554,0.0028255519687102668806,12.999000000000000554,0.0013469276789560009466,12.999000000000000554,9.8004646769174907917
13.019999999999999574,-0.0053414861499003121054,13.019999999999999574,0.0011314027881831360475,13.019999999999999574,9.7977383158824373766
13.038999999999999702,-0.0097100165622619489386,13.038999999999999702,0.00073927533862343437245,13.038999999999999702,9.7974940722628254264
13.058999999999999275,-0.0032582360102410990593,13.058999999999999275,0.0051133375110410913059,13.058999999999999275,9.8033826594163073764
13.079000000000000625,-0.0071070191501983494275,13.079000000000000625,0.0025028243448451245254,13.079000000000000625,9.8031948872477894241
13.099999999999999645,-0.0042163826182050013688,13.099999999999999645,0.0071802397582975208482,13.099999999999999645,9.7991995268527851692
13.119999999999999218,-0.011536232226271944321,13.119999999999999218,0.0061366972657520627021,13.119999999999999218,9.8040192644138457467
13.140000000000000568,-0.010518925932241563609,13.140000000000000568,0.0071984229459704594106,13.140000000000000568,9.800380821038029211
13.160000000000000142,-0.015168712765441794144,13.160000000000000142,0.0066026990281713186445,13.160000000000000142,9.804363125676053059
13.17900000000000027,-0.011133628220032464051,13.17900000000000027,0.0015492150069484572714,13.17900000000000027,9.7973618650020295462
13.199999999999999289,-0.0099578119969032374836,13.199999999999999289,0.010290064474272392001,13.199999999999999289,9.8001551448739814276
13.218999999999999417,-0.0099757358489843562382,13.218999999999999417,-0.0020383744556703529277,13.218999999999999417,9.7970378130544517603
13.239000000000000767,-0.0069494175223498953764,13.239000000000000767,0.0109895105084552476,13.239000000000000767,9.8075901666881151186
13.259999999999999787,-0.0067769954557711387794,13.259999999999999787,0.0066598214442776621988,13.259999999999999787,9.8044398700734394225
13.279999999999999361,-0.0071124886989759120159,13.279999999999999361,0.0044818173591306825765,13.279999999999999361,9.7993007659963744516
13.300000000000000711,-0.0063376208754750661123,13.300000000000000711,-1.7293368310597920473e-05,13.300000000000000711,9.7945054701300957589
13.319000000000000838,-0.012492770723447335288,13.319000000000000838,0.010862116267190196836,13.319000000000000838,9.8128844018474925548
13.339000000000000412,-0.009462060797661457287,13.339000000000000412,9.1469282239302568491e-05,13.339000000000000412,9.8049597664688814547
13.358999999999999986,-0.0092811120474555492549,13.358999999999999986,0.006616935866513542347,13.358999999999999986,9.7966692211781474242
13.380000000000000782,0.0012716498425990000343,13.380000000000000782,0.010248600970519515518,13.380000000000000782,9.7973399861474472772
13.400000000000000355,-0.0224676401532217275,13.400000000000000355,0.0022553255491152054274,13.400000000000000355,9.7942363913564403077
13.419000000000000483,-0.0091692884277391039499,13.419000000000000483,0.0069874642473974494031,13.419000000000000483,9.8122194090696037705
13.439000000000000057,-0.013969674859811846354,13.439000000000000057,0.0029351107260554010203,13.439000000000000057,9.794725374819421404
13.458999999999999631,-0.0069867973944373381462,13.458999999999999631,0.015913840342914091497,13.458999999999999631,9.8016013650179480976
13.477000000000000313,-0.0051543248924620895315,13.477000000000000313,-0.0015384362013409391603,13.477000000000000313,9.7965141844972389862
13.5,-0.0066205555079971506113,13.5,0.0066721290083916872521,13.5,9.7983129099485903879
13.519999999999999574,-0.0097592126245573951326,13.519999999999999574,0.0047750423264452867764,13.519999999999999574,9.7957847046104493671
13.538999999999999702,-0.010308489687496275727,13.538999999999999702,0.0012650124787118373522,13.538999999999999702,9.8001361756795262181
13.558999999999999275,-0.013489410783106829672,13.558999999999999275,0.00057788530905004639217,13.558999999999999275,9.8015604275950050095
13.580000000000000071,-0.0084752481623878786476,13.580000000000000071,0.0048655647744383452233,13.580000000000000071,9.8002183986618724987
13.599999999999999645,-0.012884636204609842616,13.599999999999999645,0.0010288773370497415055,13.599999999999999645,9.8127914213811777699
13.619999999999999218,-0.007462145200635633864,13.619999999999999218,-0.0030476102498731881887,13.619999999999999218,9.8145596101086400864
13.640000000000000568,-0.0063721428446660141262,13.640000000000000568,0.0065497314861147244713,13.640000000000000568,9.7976333937171666832
13.660000000000000142,-0.010419117448128723674,13.660000000000000142,0.0076746620722612296159,13.660000000000000142,9.8041063421056175997
13.67900000000000027,-0.011477400139745781368,13.67900000000000027,0.0012281771556755722609,13.67900000000000027,9.8089057677579187811
13.698999999999999844,-0.010185593251288238212,13.698999999999999844,-0.0093166179033438850654,13.698999999999999844,9.8043640127698363784
13.718999999999999417,-0.015919304806521868828,13.718999999999999417,0.0039886103142302052962,13.718999999999999417,9.7952490108911387523
13.739000000000000767,-0.01004534024271685512,13.739000000000000767,0.0048101243421928164407,13.739000000000000767,9.805608242099914662
13.759999999999999787,-0.014010134965627264389,13.759999999999999787,0.0043348668295333115524,13.759999999999999787,9.8055914549956604276
13.778999999999999915,-0.007898084850222921241,13.778999999999999915,0.012699653555768880553,13.778999999999999915,9.8070751365558042068
13.798999999999999488,-0.0068090317022156260363,13.798999999999999488,0.0096067688842188109222,13.798999999999999488,9.8024370498749942016
13.819000000000000838,-0.0099978539729865065905,13.819000000000000838,0.001611941516936014375,13.819000000000000838,9.8019501802420254677
13.839999999999999858,-0.0067949416812827859169,13.839999999999999858,-7.9340580264605553356e-05,13.839999999999999858,9.8070440172948405433
13.859999999999999432,-0.013419434852822055212,13.859999999999999432,-0.0040394006099826532119,13.859999999999999432,9.8000650676045406584
13.878999999999999559,-0.0035651401253095861207,13.878999999999999559,0.0087677009438434008043,13.878999999999999559,9.7980683296256803061
13.900000000000000355,0.0028555769661081933063,13.900000000000000355,0.0034908661736979085082,13.900000000000000355,9.8050666557216068497
13.919999999999999929,-0.0025530216842292825438,13.919999999999999929,0.012801159567632587957,13.919999999999999929,9.8059665904649389034
13.939999999999999503,-0.0025420099886299353173,13.939999999999999503,0.0074092436115029015192,13.939999999999999503,9.8037404891684598596
13.957000000000000739,-0.0047114042782586042918,13.957000000000000739,0.0063257502594449644198,13.957000000000000739,9.8057271328022785895
13.978999999999999204,-0.0043263011704058867285,13.978999999999999204,0.0082161947053939581032,13.978999999999999204,9.7965696788181890753
14,-0.013011787955039174833,14,-0.0044631549828588407483,14,9.7978313673892909463
14.019999999999999574,-0.0079180285225007775857,14.019999999999999574,0.010478607535154577796,14.019999999999999574,9.8043662682186951685
14.039999999999999147,-0.0071299236116926104426,14.039999999999999147,0.0067227613932094761051,14.039999999999999147,9.7978702140815787658
14.060000000000000497,-0.0024546282339562670513,14.060000000000000497,0.0022224597335606284532,14.060000000000000497,9.8042218175707365191
14.080000000000000071,-0.01048928443016577082,14.080000000000000071,0.010665031747759330313,14.080000000000000071,9.7853401501811880792
14.099999999999999645,-0.010928559640447589943,14.099999999999999645,0.008788045349531189987,14.099999999999999645,9.7910690275562775042
14.118999999999999773,-0.0088215339418920186987,14.118999999999999773,0.014276103448411557942,14.118999999999999773,9.8012252112202311594
14.140000000000000568,-0.0070740630251342959123,14.140000000000000568,0.0055351597555328910238,14.140000000000000568,9.7949476602985789953
14.160999999999999588,-0.0063849829660732292103,14.160999999999999588,0.011800189925242191014,14.160999999999999588,9.8069515693987305838
14.179999999999999716,-0.0074230711893108359406,14.179999999999999716,-0.0007073796601386755532,14.179999999999999716,9.8052443046367088186
14.199999999999999289,-0.0058351021392965846807,14.199999999999999289,0.004615141066178226649,14.199999999999999289,9.8002963556363429376
14.220000000000000639,-0.0087673585932608148752,14.220000000000000639,0.005695761449552832166,14.220000000000000639,9.8046065349401168021
14.240000000000000213,-0.0093565772037807956596,14.240000000000000213,0.0083030608947660261565,14.240000000000000213,9.7988663421902622019
14.262000000000000455,-0.0052117977938368155108,14.262000000000000455,0.0053472352785870393838,14.262000000000000455,9.7930557534445785706
14.279999999999999361,-0.011015603804684427278,14.279999999999999361,0.0051344022609933429729,14.279999999999999361,9.8076255228984372536
14.300000000000000711,-0.0030567919579637826272,14.300000000000000711,0.0049826041942651316113,14.300000000000000711,9.7887833283656355832
14.320000000000000284,-0.0092150159456573406402,14.320000000000000284,0.0040961236669353317391,14.320000000000000284,9.8035577877243795797
14.339999999999999858,-0.0063560263586003949016,14.339999999999999858,-0.0027843981108967765653,14.339999999999999858,9.7933109100473387798
14.358999999999999986,-0.0032116499235483268043,14.358999999999999986,0.0061009424308025687889,14.358999999999999986,9.8039873961814603121
14.378999999999999559,-0.001138999989624970427,14.378999999999999559,0.015663418866220482628,14.378999999999999559,9.8141429700436528805
14.399000000000000909,-0.0064191334802777564109,14.399000000000000909,0.0038190022415473417507,14.399000000000000909,9.7995898981027913521
14.419000000000000483,-0.010007666170879395834,14.419000000000000483,0.0088251833950561252989,14.419000000000000483,9.8033414114108712312
14.438000000000000611,0.0060276791578758887741,14.438000000000000611,0.0038563577840168119029,14.438000000000000611,9.8015775622253897836
14.460000000000000853,-0.015598764197247028812,14.460000000000000853,0.0071114319474416039929,14.460000000000000853,9.8032674574601834649
14.478999999999999204,-0.010386318766724121979,14.478999999999999204,0.0056529311393408781736,14.478999999999999204,9.8079746710160904399
14.499000000000000554,-0.009439653233490663542,14.499000000000000554,0.0053018196100346739671,14.499000000000000554,9.79598815586444438
14.519000000000000128,-0.0028316917505443700391,14.519000000000000128,0.0066745147846613691808,14.519000000000000128,9.8067679262078808478
14.539999999999999147,-0.0056349767911833322648,14.539999999999999147,-3.529209913443396554e-05,14.539999999999999147,9.801238525556261294
14.558999999999999275,-0.0037052656625810535124,14.558999999999999275,-0.0053545408612905272608,14.558999999999999275,9.7942606452016498508
14.579000000000000625,-0.0026308682122436785437,14.579000000000000625,0.0041930387617906995923,14.579000000000000625,9.799023487484694428
14.599000000000000199,-0.0028215587157062269746,14.599000000000000199,0.0039774596185226792841,14.599000000000000199,9.8039239969297966582
14.622999999999999332,-0.0098881998558122529558,14.622999999999999332,0.0087421812324017036944,14.622999999999999332,9.809286044863405607
14.640000000000000568,-0.0097987899153032104183,14.640000000000000568,0.0017304530758356249584,14.640000000000000568,9.8093052814808245898
14.659000000000000696,-0.0050711585516663073431,14.659000000000000696,-0.0019103669144573743374,14.659000000000000696,9.805672898683186034
14.67900000000000027,-0.0046674889420341512253,14.67900000000000027,0.0051898526524080694153,14.67900000000000027,9.800318738114793149
14.698999999999999844,-0.0082045043857490278227,14.698999999999999844,0.0089364682442565467752,14.698999999999999844,9.7956186132571385627
14.718999999999999417,-0.0017779068692271293977,14.718999999999999417,0.003898260284530529092,14.718999999999999417,9.7963546702685562195
14.739000000000000767,-0.011654678405347659864,14.739000000000000767,0.0047476680824336111794,14.739000000000000767,9.7965767181818357301
14.759999999999999787,-0.011777223051814561181,14.759999999999999787,0.0081490866309819314645,14.759999999999999787,9.7947971828083453261
14.779999999999999361,-0.0090421377358340868091,14.779999999999999361,0.0076367940684985572211,14.779999999999999361,9.7983046590120359554
14.803000000000000824,-0.014576001898926332564,14.803000000000000824,0.011877539829613438169,14.803000000000000824,9.8029112882526021622
14.820000000000000284,-0.0015377317543693144915,14.820000000000000284,0.0049824276981646261481,14.820000000000000284,9.8035200139410161313
14.839999999999999858,-0.01360614595927331881,14.839999999999999858,0.0060823850712313420538,14.839999999999999858,9.7928845916251532344
14.858999999999999986,-0.005437754789804638729,14.858999999999999986,0.01189845701049756406,14.858999999999999986,9.8114655729864104217
14.880000000000000782,-0.0040176643489740811871,14.880000000000000782,0.0086102819004345455128,14.880000000000000782,9.8036149326822155103
14.899000000000000909,-0.012210576199344713375,14.899000000000000909,0.002750500219717012286,14.899000000000000909,9.7992166316287239169
14.923999999999999488,-0.0036640826605183764685,14.923999999999999488,-0.00086294097735774375618,14.923999999999999488,9.8114927530974380687
14.939999999999999503,-0.00029227072123843233185,14.939999999999999503,0.0029459014615183585876,14.939999999999999503,9.7962598423164628514
14.960000000000000853,-0.0086014998969234125747,14.960000000000000853,0.0042522858641210392258,14.960000000000000853,9.7944182237646550959
14.980000000000000426,-0.011631045993653801179,14.980000000000000426,0.015363510983063341162,14.980000000000000426,9.7999468353225793749
15,-0.012556462702818630556,15,0.0042600570421524996262,15,9.8084263370373534485
15.019000000000000128,-0.0076397848463089310794,15.019000000000000128,0.0033803669159376660905,15.019000000000000128,9.8000635338495758475
15.039999999999999147,-0.0090786635831706999356,15.039999999999999147,0.015016478679168020205,15.039999999999999147,9.7941098251628453397
15.058999999999999275,-0.011060744973237208663,15.058999999999999275,0.0046588739933554942224,15.058999999999999275,9.8024831277567532339
15.080000000000000071,-0.012548937317593685317,15.080000000000000071,0.010921795511726182029,15.080000000000000071,9.8054757737173190435
15.099000000000000199,-0.0066653209837871782092,15.099000000000000199,0.0010505033607888926254,15.099000000000000199,9.7967916665330196935
15.118999999999999773,-0.0070310283387971985597,15.118999999999999773,-0.0015711673745462974554,15.118999999999999773,9.8010638066508892763
15.14199999999999946,-0.0058819362582442514392,15.14199999999999946,0.01181772944732630351,15.14199999999999946,9.8024475765369807334
15.160000000000000142,0.0035757219363272019913,15.160000000000000142,0.012258375457312471052,15.160000000000000142,9.7951060574424122507
15.17900000000000027,-0.011785576632196615235,15.17900000000000027,0.0023773754842014854782,15.17900000000000027,9.8043798763290777032
15.199999999999999289,-0.0049735001308557390612,15.199999999999999289,0.0023589483095213859866,15.199999999999999289,9.7999385699940884109
15.220000000000000639,-0.0080460034363013938075,15.220000000000000639,0.0095881045409892517312,15.220000000000000639,9.809381516429267478
15.240000000000000213,-0.007993304643533656606,15.240000000000000213,4.5378386592724627782e-05,15.240000000000000213,9.8043483250231311388
15.259999999999999787,-0.024078966678164261117,15.259999999999999787,0.00012303370442914867864,15.259999999999999787,9.8028538427394238397
15.278999999999999915,-0.01173779011974676427,15.278999999999999915,0.00058256310740459132328,15.278999999999999915,9.8061495432012630857
15.300000000000000711,-0.003447969059095911705,15.300000000000000711,0.0097055171922753192409,15.300000000000000711,9.8014648491601423785
15.319000000000000838,-0.0078349860224684719084,15.319000000000000838,0.0019729936616822269478,15.319000000000000838,9.8030092630759533279
15.339000000000000412,-0.0058552086966009442293,15.339000000000000412,0.00080700300259078970935,15.339000000000000412,9.8009633342556163882
15.361000000000000654,-0.0094841152755855452627,15.361000000000000654,0.0048705488949401408091,15.361000000000000654,9.8024487742006591873
15.378999999999999559,-0.001558651888314583657,15.378999999999999559,0.0041492119383210179784,15.378999999999999559,9.8014736808101829979
15.399000000000000909,-0.0017485071015210518208,15.399000000000000909,0.0037350735073845746717,15.399000000000000909,9.8011151023701277296
15.419000000000000483,-0.00023242653303543706501,15.419000000000000483,0.0037660467955771223005,15.419000000000000483,9.7923863798421493243
15.439999999999999503,0.0002868977275887138207,15.439999999999999503,-0.00069738285991548481894,15.439999999999999503,9.809458242298005004
15.458999999999999631,-0.0004510661411426784579,15.458999999999999631,0.016228558920360292017,15.458999999999999631,9.8066097499167028673
15.478999999999999204,-0.0074984554353866462312,15.478999999999999204,0.0058442015126591827234,15.478999999999999204,9.7993430809341486309
15.499000000000000554,0.0021025714681958095065,15.499000000000000554,0.0032526051618678849739,15.499000000000000554,9.8070712223079361536
15.519000000000000128,-0.0032587851827980875846,15.519000000000000128,0.0067255320411335594438,15.519000000000000128,9.8123555028041806736
15.538999999999999702,-0.00046269135257378688972,15.538999999999999702,0.012524770242558108321,15.538999999999999702,9.8059685768784703441
15.558999999999999275,-0.0039931626696423205142,15.558999999999999275,0.0019524236459620013424,15.558999999999999275,9.8080222984229905592
15.579000000000000625,-0.0092414700454802167079,15.579000000000000625,0.0045095580866285822283,15.579000000000000625,9.8030960574211363223
15.599000000000000199,-0.0095230078140753019605,15.599000000000000199,0.0060005751394715690222,15.599000000000000199,9.8040211234551417618
15.618999999999999773,-0.0085302283113038238072,15.618999999999999773,0.0072646120350264783982,15.618999999999999773,9.7990275046720842766
15.638999999999999346,-0.0033362163265734938629,15.638999999999999346,0.01476563609473327196,15.638999999999999346,9.7992113245218064321
15.659000000000000696,-0.015456510135993152197,15.659000000000000696,0.0039793718185187855127,15.659000000000000696,9.8040120147334501866
15.679999999999999716,-0.00025438907956205691419,15.679999999999999716,0.0014527621990344204757,15.679999999999999716,9.8007542395838154192
15.698999999999999844,-0.0071866821672673360591,15.698999999999999844,0.0084586494724753699681,15.698999999999999844,9.7992569119136661016
15.720000000000000639,-0.011347199152177625189,15.720000000000000639,0.0060943909454163050152,15.720000000000000639,9.8077947275873871291
15.740000000000000213,-0.0026479663791394948344,15.740000000000000213,0.00070026214126461751482,15.740000000000000213,9.8024080474967547616
15.759000000000000341,-0.0095354253844784960664,15.759000000000000341,-0.007045885970652376179,15.759000000000000341,9.8026205058664057646
15.778999999999999915,-0.011725936420322267614,15.778999999999999915,0.0061569549828817942555,15.778999999999999915,9.7959663493424002922
15.800000000000000711,-0.005369621762624504982,15.800000000000000711,0.0011102394987140282515,15.800000000000000711,9.804941544915662277
15.819000000000000838,-0.0086532148137155456835,15.819000000000000838,0.0019870394247547434365,15.819000000000000838,9.8011418282970570459
15.839000000000000412,-0.0017843729418387350386,15.839000000000000412,0.0093564092535176630189,15.839000000000000412,9.8020902581363298367
15.858999999999999986,-0.0080356418917954877679,15.858999999999999986,0.0023674514449520999218,15.858999999999999986,9.8021443602217548374
15.880000000000000782,-0.00017238464692424641279,15.880000000000000782,0.0092668119051623944887,15.880000000000000782,9.8103711539963587285
15.899000000000000909,-0.0089333909561381315972,15.899000000000000909,0.002005600226209452823,15.899000000000000909,9.799603723906837871
15.919999999999999929,-0.0032267164383952212994,15.919999999999999929,0.010300269450615937711,15.919999999999999929,9.8016761941154726401
15.939999999999999503,0.00083060019133980144811,15.939999999999999503,0.0012259931084726285403,15.939999999999999503,9.8020574908851720863
15.958000000000000185,-0.0031551080978848723008,15.958000000000000185,0.001363708961365287008,15.958000000000000185,9.8028243960140653002
15.980000000000000426,-0.012917096991691802768,15.980000000000000426,-0.00018939134753832484979,15.980000000000000426,9.8001357108521816031
15.999000000000000554,7.2384197994952888255e-05,15.999000000000000554,0.0073983923455690240797,15.999000000000000554,9.8029383903468403361
16.018999999999998352,-0.0089289474127990601376,16.018999999999998352,0.0058711691550256831298,16.018999999999998352,9.8026939943754687334
16.039999999999999147,-0.0024005881747166768307,16.039999999999999147,0.013544007067724543256,16.039999999999999147,9.8018560539832240153
16.059999999999998721,-0.0048694310881308754471,16.059999999999998721,0.0088879939702397950385,16.059999999999998721,9.804032841436326251
16.079999999999998295,-0.012374943635915541806,16.079999999999998295,0.02324216256593863647,16.079999999999998295,9.8003194311141736961
16.100000000000001421,-0.011220986404896949803,16.100000000000001421,-0.0035863232752356712617,16.100000000000001421,9.8019396758832435523
16.118999999999999773,-0.0060835639307492764272,16.118999999999999773,0.0076138939786816435887,16.118999999999999773,9.8107156910589647936
16.138999999999999346,-0.011391954256804512693,16.138999999999999346,0.0073406938742725516209,16.138999999999999346,9.7983886147042635884
16.15899999999999892,-0.0095036606203815834903,16.15899999999999892,-0.01129763453943084632,16.15899999999999892,9.8015531158054578498
16.178999999999998494,-0.0016340506198326558603,16.178999999999998494,0.0017948143439671876767,16.178999999999998494,9.800277057071527409
16.19900000000000162,-0.003117839189882332801,16.19900000000000162,0.0022171039053861837757,16.19900000000000162,9.8026183916839801924
16.219999999999998863,-0.0074558907533751831581,16.219999999999998863,-0.00086604986398181342186,16.219999999999998863,9.8022426987591639858
16.239999999999998437,-0.0035898959750728307028,16.239999999999998437,0.0094506357710788559123,16.239999999999998437,9.8019512083434019445
16.259000000000000341,-0.0052650229710985742282,16.259000000000000341,0.002155836461362788635,16.259000000000000341,9.8014153392679386201
16.280000000000001137,-0.011945307472885437899,16.280000000000001137,0.0024270712254900383628,16.280000000000001137,9.8017614412167137772
16.300000000000000711,-0.0098573659610746086623,16.300000000000000711,0.010237741782423205941,16.300000000000000711,9.8015366058870867505
16.317000000000000171,0.0025578518329182993105,16.317000000000000171,-0.002582250222313960987,16.317000000000000171,9.8019532886745448508
16.338999999999998636,-0.01234073995782434402,16.338999999999998636,0.0087297470668337741329,16.338999999999998636,9.7965894483131243931
16.359000000000001762,-0.006693096536469380145,16.359000000000001762,0.012467120351299133818,16.359000000000001762,9.8074948896749223337
16.379000000000001336,-0.0042828349603474735394,16.379000000000001336,0.0086644293285192200416,16.379000000000001336,9.8127783775003383226
16.399000000000000909,-0.012193386136905244588,16.399000000000000909,0.0092986061388864102439,16.399000000000000909,9.807695682193449116
16.419000000000000483,-0.0057125087939901252054,16.419000000000000483,0.0092197621160339509466,16.419000000000000483,9.8009032840274574738
16.439000000000000057,-0.0045358964027000757413,16.439000000000000057,0.0031216807923603517513,16.439000000000000057,9.8047115330066638705
16.458999999999999631,0.0017190866773596855804,16.458999999999999631,-0.0019814311814241344738,16.458999999999999631,9.8043938629455329448
16.478999999999999204,-0.014057571508062742527,16.478999999999999204,0.010357902803857987548,16.478999999999999204,9.7934407918151613615
16.5,-0.012285494369398134579,16.5,0.0070117129293713210264,16.5,9.7948253190955583136
16.518999999999998352,-0.003987442477421580464,16.518999999999998352,0.0046662061340040127469,16.518999999999998352,9.8012524881355638229
16.539999999999999147,-0.0050142731945762818169,16.539999999999999147,0.011046416509759956343,16.539999999999999147,9.8017158987421701966
16.559999999999998721,-0.01249883746792263689,16.559999999999998721,-8.3779394925331314046e-05,16.559999999999998721,9.7988697268783031546
16.579000000000000625,-0.0090322150010404920334,16.579000000000000625,-0.00050739070216825055137,16.579000000000000625,9.8045812265150136255
16.599000000000000199,-0.012006952755821056339,16.599000000000000199,0.0037213770073112996742,16.599000000000000199,9.7929874410807968843
16.620000000000000995,-0.0078763264453091640094,16.620000000000000995,0.0039425263591496900392,16.620000000000000995,9.79710675032568723
16.638999999999999346,-0.0029628008481539201691,16.638999999999999346,0.011167442150951750746,16.638999999999999346,9.8014729938719042934
16.65899999999999892,-0.0094191279249030302606,16.65899999999999892,0.0050605702706053067377,16.65899999999999892,9.8004509800230135141
16.678999999999998494,-9.0098696039550151167e-05,16.678999999999998494,0.012983656849470368716,16.678999999999998494,9.8002711579750467763
16.69900000000000162,-0.0048722130392358986226,16.69900000000000162,0.0026198339762567766052,16.69900000000000162,9.801694662791845758
16.719999999999998863,-0.0018664332891608038326,16.719999999999998863,0.011132140755350709502,16.719999999999998863,9.7968255460795461431
16.739999999999998437,-0.001923531074309686251,16.739999999999998437,0.0041537110827809965025,16.739999999999998437,9.8046777390191017787
16.759000000000000341,-0.0059025126258534900761,16.759000000000000341,-0.0085158832407509280071,16.759000000000000341,9.7990521105478816111
16.778999999999999915,-0.0043518212019455961709,16.778999999999999915,0.011794380793279605341,16.778999999999999915,9.7986103594706062125
16.800000000000000711,-0.012120136207407072523,16.800000000000000711,-0.00039001650008368493952,16.800000000000000711,9.7986720917462353242
16.818000000000001393,-0.014535360242402086892,16.818000000000001393,0.010049864888172325983,16.818000000000001393,9.8006563028042315011
16.838999999999998636,-0.013916203000195774206,16.838999999999998636,0.0032427335064812070481,16.838999999999998636,9.804582146715825175
16.859000000000001762,-0.0033986587446016252971,16.859000000000001762,0.014155012180229017277,16.859000000000001762,9.799777803859992531
16.879999999999999005,-0.0015944911365729900771,16.879999999999999005,0.0037191579592590587496,16.879999999999999005,9.7933010942508609276
16.899000000000000909,-0.015853240923680612245,16.899000000000000909,0.008488112038943595658,16.899000000000000909,9.7992311705285910506
16.920000000000001705,-0.0025521339019229545564,16.920000000000001705,0.0067463054098459672436,16.920000000000001705,9.794632761840825097
16.939000000000000057,-0.0095604508463864971979,16.939000000000000057,-0.0010778911879091937227,16.939000000000000057,9.8023014976002968979
16.958999999999999631,-0.013839475420204198214,16.958999999999999631,-0.0012609208606950005234,16.958999999999999631,9.7965219298687582494
16.978999999999999204,0.0061481723350348856105,16.978999999999999204,0.010486107990334728873,16.978999999999999204,9.7943565642557732787
16.998999999999998778,-0.0060067461270172338439,16.998999999999998778,0.0018050711855573543102,16.998999999999998778,9.8007329767852695568
17.018999999999998352,-0.0038106807979749290731,17.018999999999998352,0.0042259648089758555106,17.018999999999998352,9.7952293613211782741
17.039999999999999147,0.00023639449808676900062,17.039999999999999147,0.0016193345664868102028,17.039999999999999147,9.8113566822704232351
17.059000000000001052,-0.0095212270066966347287,17.059000000000001052,0.017474298638750846574,17.059000000000001052,9.7934098232385835558
17.079000000000000625,-0.0057459374783826802635,17.079000000000000625,0.0076538447205580974891,17.079000000000000625,9.8132447486161265005
17.100000000000001421,-0.013485450693480121806,17.100000000000001421,0.011822801165711997046,17.100000000000001421,9.8030718733899373518
17.118999999999999773,-0.014619719676136577052,17.118999999999999773,0.00098712614791377113754,17.118999999999999773,9.8044280213668173474
17.140000000000000568,-0.0048593213334043932825,17.140000000000000568,0.010776044632149855279,17.140000000000000568,9.800969086072015557
17.15899999999999892,-0.013890949591890295114,17.15899999999999892,0.0095212842522510478249,17.15899999999999892,9.7990933025813511392
17.178999999999998494,-0.017729462245382788393,17.178999999999998494,0.008423565298376102517,17.178999999999998494,9.7975932305893724816
17.199999999999999289,-0.0066118983658878249798,17.199999999999999289,0.009001786660474556459,17.199999999999999289,9.8042348560204821695
17.217999999999999972,-0.0063370537105657698956,17.217999999999999972,-0.0021084537523419094075,17.217999999999999972,9.794590541798624983
17.239000000000000767,-0.0068212607021887333714,17.239000000000000767,0.0085082079446597864286,17.239000000000000767,9.8064640952667421203
17.259000000000000341,-0.0034055613937800637697,17.259000000000000341,0.014218015574595236489,17.259000000000000341,9.7947742571803377842
17.278999999999999915,-0.0066152680738668697552,17.278999999999999915,0.012996370700840387605,17.278999999999999915,9.7947380966897448218
17.298999999999999488,-0.013104317265944220514,17.298999999999999488,0.0092887550875986463206,17.298999999999999488,9.7984072848928445154
17.318999999999999062,-0.0021038323293109360834,17.318999999999999062,0.0076991992544120264885,17.318999999999999062,9.8062745196300049599
17.338999999999998636,-0.020260705356606414917,17.338999999999998636,0.0044462966371361500179,17.338999999999998636,9.802962000529714004
17.359000000000001762,-0.010754348130675063164,17.359000000000001762,0.011884416988814497373,17.359000000000001762,9.8035348993629281011
17.379000000000001336,-0.012239657589664870024,17.379000000000001336,0.0071646664010397353647,17.379000000000001336,9.8037513415468566791
17.399000000000000909,-0.0041166612672373231741,17.399000000000000909,0.0096459227818390409076,17.399000000000000909,9.810035763511802287
17.420000000000001705,-0.013584400813771560501,17.420000000000001705,0.0016933792730547355711,17.420000000000001705,9.7939991893782281096
17.439000000000000057,-0.0082697378455656861407,17.439000000000000057,0.01447029474243553826,17.439000000000000057,9.8054917276593087649
17.458999999999999631,-0.00021066095505485843246,17.458999999999999631,0.0068977235788979978162,17.458999999999999631,9.8072298599746137171
17.478999999999999204,0.0022394512543673582815,17.478999999999999204,0.011817785091582983306,17.478999999999999204,9.8028711869907585452
17.498999999999998778,-0.0024245679500469173064,17.498999999999998778,-0.0049041972517916612023,17.498999999999998778,9.7966861875492039502
17.518999999999998352,-0.0059899297093116594948,17.518999999999998352,0.0015706109423627436731,17.518999999999998352,9.8121116219576443029
17.539000000000001478,0.00050059712916703370898,17.539000000000001478,0.002079865423824509528,17.539000000000001478,9.7992857828762289785
17.559999999999998721,-0.003500589629158516649,17.559999999999998721,-0.00043591805072835541814,17.559999999999998721,9.7939038741818507106
17.579000000000000625,-0.0099873199147392077019,17.579000000000000625,0.0018724892449838701804,17.579000000000000625,9.7966484448209367741
17.599000000000000199,-0.011965193478459233006,17.599000000000000199,0.016819654294423332791,17.599000000000000199,9.8040796493764652553
17.618999999999999773,-0.0058895839517491754486,17.618999999999999773,0.011067058405472104954,17.618999999999999773,9.7988777414571170965
17.638999999999999346,-0.0064769951019766651076,17.638999999999999346,0.0068835922679899375423,17.638999999999999346,9.8069584175697510631
17.65899999999999892,-0.0046982422590050310074,17.65899999999999892,0.0088080056719626684952,17.65899999999999892,9.8035087840814707505
17.678999999999998494,-0.0029264524895553411035,17.678999999999998494,0.0082474503172376995713,17.678999999999998494,9.8016144660781971965
17.69900000000000162,-0.006202758656188476008,17.69900000000000162,0.010396575318490624412,17.69900000000000162,9.8033570539567023161
17.719000000000001194,-0.0019987076454031985073,17.719000000000001194,0.0090803171000193288326,17.719000000000001194,9.7998584706725111459
17.739999999999998437,-0.014439540396198465369,17.739999999999998437,0.0013696499455704157135,17.739999999999998437,9.8019133811412775259
17.760000000000001563,-0.01016838298037165203,17.760000000000001563,0.0019258719815570212158,17.760000000000001563,9.8060495025490936882
17.778999999999999915,-0.011688703037657359809,17.778999999999999915,-0.00089607403381892255633,17.778999999999999915,9.8051270391220732847
17.798999999999999488,-0.0062792832761399148406,17.798999999999999488,0.0053245036821902135687,17.798999999999999488,9.8110629989786151128
17.818000000000001393,-0.013761594108722333477,17.818000000000001393,0.0024680964463107499945,17.818000000000001393,9.7995752435411578318
17.838999999999998636,-0.00069159973349475732662,17.838999999999998636,0.00085691310065934365309,17.838999999999998636,9.8050997873180421038
17.859000000000001762,-0.010276850188376065315,17.859000000000001762,0.0028214309608957247391,17.859000000000001762,9.8079760504247364139
17.879000000000001336,-0.0085826093520120719932,17.879000000000001336,0.0042424943689774634661,17.879000000000001336,9.8055314946874503335
17.899999999999998579,-0.014311955031727259177,17.899999999999998579,0.0025783105440122622114,17.899999999999998579,9.8044409717597904574
17.917999999999999261,-0.015298347962449474619,17.917999999999999261,0.0065885173999196905772,17.917999999999999261,9.8040168313657396482
17.939000000000000057,-0.0016510731542057443914,17.939000000000000057,0.0035347954828089341896,17.939000000000000057,9.8002803746192839185
17.960000000000000853,-0.0050262096385847972527,17.960000000000000853,0.0018577405180629704296,17.960000000000000853,9.8045907234382490003
17.978999999999999204,-0.015840746539125000886,17.978999999999999204,0.010105692639798425497,17.978999999999999204,9.8036698057817943663
18,-0.0054435799741948632732,18,0.0026048294043317242637,18,9.7944399209073687018
18.018999999999998352,-0.00085508969047886241189,18.018999999999998352,0.0039618709261959993845,18.018999999999998352,9.8032672095019730563
18.039000000000001478,-0.013015466888347039867,18.039000000000001478,0.0085814361090355301825,18.039000000000001478,9.7980796236884035721
18.059000000000001052,-0.0062407086085350697499,18.059000000000001052,0.0018542034680225723178,18.059000000000001052,9.8015832122529360504
18.079000000000000625,0.00024247850555431744914,18.079000000000000625,0.0022608805806859826396,18.079000000000000625,9.7973008883881043118
18.100000000000001421,-0.0096838976794903029038,18.100000000000001421,0.011862587260705355699,18.100000000000001421,9.8072835223502714541
18.118999999999999773,-0.003508398105771549317,18.118999999999999773,-0.00060290566263512747509,18.118999999999999773,9.7989913194007236541
18.138999999999999346,0.0037791591815440647543,18.138999999999999346,0.0088181047010235068251,18.138999999999999346,9.7975432523126464446
18.160000000000000142,-0.00042964321144267961488,18.160000000000000142,0.00024873522651455899114,18.160000000000000142,9.8035984404137970216
18.178999999999998494,-0.0085041826509289642627,18.178999999999998494,0.011817892974137742673,18.178999999999998494,9.796594927110605866
18.19900000000000162,-0.0020605432341684755924,18.19900000000000162,0.0034414577783124043059,18.19900000000000162,9.7985535663839495868
18.219000000000001194,0.0005144896499942707823,18.219000000000001194,0.0048126535064798130203,18.219000000000001194,9.8022166987531438309
18.239999999999998437,-0.0034321979363658417471,18.239999999999998437,0.0023212000957402224334,18.239999999999998437,9.8005660273513868219
18.259000000000000341,0.00096367824781945499169,18.259000000000000341,0.005504314575470846925,18.259000000000000341,9.7982571649307672601
18.278999999999999915,-0.012130297399395197425,18.278999999999999915,0.0048311244967301830364,18.278999999999999915,9.8033787357030455212
18.298999999999999488,-0.0020245662019328027233,18.298999999999999488,0.0037292700766632883719,18.298999999999999488,9.7999593735961223473
18.320000000000000284,-0.0045407929871581322392,18.320000000000000284,0.0035027469725745878637,18.320000000000000284,9.806271686677119348
18.338999999999998636,-0.014426961457293850655,18.338999999999998636,0.0048239067355409191717,18.338999999999998636,9.7971688775956931039
18.359000000000001762,-0.010835754478074780677,18.359000000000001762,-0.0010895591418662838382,18.359000000000001762,9.8038832055184581549
18.379000000000001336,-0.0099637425991055145885,18.379000000000001336,0.007368719899875519723,18.379000000000001336,9.801454353086253235
18.399999999999998579,-0.0062946543859965465792,18.399999999999998579,0.011078024964581290393,18.399999999999998579,9.799325172344346413
18.419000000000000483,-0.0047659189728394097882,18.419000000000000483,0.0024697595760828608587,18.419000000000000483,9.7931117708267976241
18.439000000000000057,-0.0071680430058938919557,18.439000000000000057,0.0044401554203822475586,18.439000000000000057,9.8019710903919339273
18.458999999999999631,-0.013120770378076657137,18.458999999999999631,0.011031609213695748109,18.458999999999999631,9.8026483499878036554
18.478999999999999204,-0.0026708666236411582849,18.478999999999999204,0.0067447963179203401785,18.478999999999999204,9.7997024668950558635
18.498999999999998778,-0.010577610194659572626,18.498999999999998778,-0.00099529316801598866765,18.498999999999998778,9.803849029344744892
18.519999999999999574,-0.011203871025954905555,18.519999999999999574,-0.00084633053943634635029,18.519999999999999574,9.8039955777189948805
18.539000000000001478,-0.0034456087725828802269,18.539000000000001478,0.0042315220912386231414,18.539000000000001478,9.7941825477370390018
18.559999999999998721,-0.0035109712201243730399,18.559999999999998721,0.0053815871270154382738,18.559999999999998721,9.799438307473673504
18.579000000000000625,-0.0056914437958976282078,18.579000000000000625,0.0019445496738019305439,18.579000000000000625,9.807458259198327255
18.600000000000001421,-0.0066969726399761725713,18.600000000000001421,0.0063685635625798913545,18.600000000000001421,9.802558674626920876
18.618999999999999773,-0.0092821526997360053607,18.618999999999999773,0.011472804126346627246,18.618999999999999773,9.8081011072262764827
18.638999999999999346,-0.00094463000867259585853,18.638999999999999346,-0.0019679375448481361242,18.638999999999999346,9.7962044881062713131
18.65899999999999892,-0.0072655951517747929466,18.65899999999999892,0.00026106955359894706966,18.65899999999999892,9.7999168514899306359
18.678999999999998494,0.0036319846537746585356,18.678999999999998494,-0.0046807549648940818127,18.678999999999998494,9.7950856541267885547
18.69900000000000162,-0.0082867774418800988628,18.69900000000000162,0.010335746802199037922,18.69900000000000162,9.7987213780406658969
18.719000000000001194,-0.0090245913015673858565,18.719000000000001194,0.0025249290621984677059,18.719000000000001194,9.805575118513342403
18.739000000000000767,-0.0020954423185962816126,18.739000000000000767,0.001528306333177660483,18.739000000000000767,9.8034066509885899876
18.760000000000001563,-0.001033141309925982021,18.760000000000001563,0.0020834672741029398695,18.760000000000001563,9.7950522183135362297
18.778999999999999915,-0.0052734888736510922291,18.778999999999999915,0.0049983795193771366275,18.778999999999999915,9.7932469424688530779
18.800000000000000711,-0.0046036208379032052609,18.800000000000000711,-0.00086163890199400300016,18.800000000000000711,9.8047162536150267442
18.818999999999999062,-0.0070359906643190786926,18.818999999999999062,0.0034426496562693299948,18.818999999999999062,9.8074211347305517705
18.839999999999999858,-0.0087045282503419585396,18.839999999999999858,0.0027686546179733367325,18.839999999999999858,9.8057988269765417044
18.859000000000001762,-0.013411978617991988927,18.859000000000001762,0.0032312692282561363694,18.859000000000001762,9.7939487509417748612
18.879000000000001336,-0.015534385604513603618,18.879000000000001336,0.0052435138734093170859,18.879000000000001336,9.8055221834006687232
18.899999999999998579,0.0048519040732172705535,18.899999999999998579,0.0043727925770937672162,18.899999999999998579,9.795438484239125998
18.919000000000000483,-0.018641078353643363019,18.919000000000000483,0.0094061470515521480862,18.919000000000000483,9.7977936033689267958
18.940000000000001279,-0.0054601222233557214839,18.940000000000001279,0.0011435198709206940287,18.940000000000001279,9.8054655387488161011
18.958999999999999631,-0.0025570605063086619853,18.958999999999999631,0.0049762379758853643799,18.958999999999999631,9.7979239180866048997
18.980000000000000426,-0.01563767992289296499,18.980000000000000426,0.0065433540736951510339,18.980000000000000426,9.8082765578540591633
19,-0.011138562252892714871,19,0.0022486146400887948096,19,9.8065136058785515871
19.019999999999999574,-0.0062084891355321403933,19.019999999999999574,0.011672068969497255767,19.019999999999999574,9.798177181133329583
19.039999999999999147,-0.011998156825839633929,19.039999999999999147,0.00490761089846550487,19.039999999999999147,9.804100138839963563
19.059000000000001052,-0.0026271538465883312492,19.059000000000001052,0.0047759867410791983014,19.059000000000001052,9.8068102665897409764
19.079999999999998295,0.0019524878661555536766,19.079999999999998295,0.00077812541740304665052,19.079999999999998295,9.7969992834233039503
19.099000000000000199,-0.010218165959740722198,19.099000000000000199,0.00059796216683563661962,19.099000000000000199,9.799902239262218373
19.120999999999998664,0.0015378251775485215005,19.120999999999998664,0.00035236709390967346344,19.120999999999998664,9.8000878636375112762
19.138000000000001677,-0.006074384364752711922,19.138000000000001677,0.017906989231911540211,19.138000000000001677,9.7965760383236677455
19.15899999999999892,-0.008450385277482009086,19.15899999999999892,0.0017078079437907527863,19.15899999999999892,9.7964212990436170259
19.178999999999998494,-0.0043889253119071122353,19.178999999999998494,0.0046362317049849508313,19.178999999999998494,9.7987339364074799164
19.19900000000000162,-0.00091677737172815500655,19.19900000000000162,0.0048125456340801535046,19.19900000000000162,9.8006271445965769118
19.219000000000001194,0.0025002849924975960143,19.219000000000001194,0.012890919845396161744,19.219000000000001194,9.8034343739116227567
19.239999999999998437,-0.0065996562657504751967,19.239999999999998437,0.0057589003536050106802,19.239999999999998437,9.8005837160297115673
19.259000000000000341,-0.011733568889973799293,19.259000000000000341,0.00033061759966605092868,19.259000000000000341,9.8040458617660561913
19.278999999999999915,-0.0040430642822739783562,19.278999999999999915,0.0092959405585837200092,19.278999999999999915,9.8012935014575557346
19.297999999999998266,-0.0051098209128867810858,19.297999999999998266,0.0062480375013572323276,19.297999999999998266,9.7940779893109883858
19.318999999999999062,-0.0084001425627609187935,19.318999999999999062,0.0055800339482931626128,19.318999999999999062,9.8056886416331625611
19.339999999999999858,-0.0092829301274251537629,19.339999999999999858,0.0046893311711629888719,19.339999999999999858,9.8000840329278986474
19.359999999999999432,-0.003466873119060872796,19.359999999999999432,0.00066203300580429370013,19.359999999999999432,9.7915361404829663883
19.379000000000001336,-0.0024161631445866749157,19.379000000000001336,0.0051267127133166924546,19.379000000000001336,9.7954235099353503813
19.399000000000000909,-0.014414871219833740729,19.399000000000000909,0.00098147290288442580464,19.399000000000000909,9.791253330325663029
19.419000000000000483,0.0035547509880916082839,19.419000000000000483,0.00077542466328961510806,19.419000000000000483,9.8114128439871546306
19.440000000000001279,-0.013320169260679637357,19.440000000000001279,0.0060872268239486240077,19.440000000000001279,9.8051832242482905855
19.458999999999999631,-0.013639215483578860655,19.458999999999999631,0.0086146784436849557082,19.458999999999999631,9.8051121760671566818
19.478999999999999204,-0.0095795928678364620362,19.478999999999999204,0.00017026245450156736721,19.478999999999999204,9.7990839322398333167
19.498999999999998778,-0.00055375865546844786277,19.498999999999998778,0.0030957819695228453935,19.498999999999998778,9.7963682998843992777
19.519999999999999574,-0.0069178950555730369179,19.519999999999999574,0.0027083905713442403378,19.519999999999999574,9.7992505467097892335
19.539999999999999147,-0.0061959666393731236897,19.539999999999999147,0.0096789171166964393933,19.539999999999999147,9.8100736630890530421
19.559000000000001052,-0.0078844015513148853203,19.559000000000001052,0.0011741940774797389197,19.559000000000001052,9.8028999137007346576
19.579000000000000625,-0.0051278944888407586994,19.579000000000000625,0.0082959971464693915699,19.579000000000000625,9.8005389694666682487
19.599000000000000199,-0.00028897856817653106223,19.599000000000000199,0.007335289518408930412,19.599000000000000199,9.8111819730823643937
19.618999999999999773,-0.0027783197770201916929,19.618999999999999773,0.008288722539309505144,19.618999999999999773,9.8080359387288282846
19.64199999999999946,-0.0052545041598262877403,19.64199999999999946,-0.0017034162195506245569,19.64199999999999946,9.8000676089114620027
19.658000000000001251,-0.012079584766143508859,19.658000000000001251,0.010292865409898441578,19.658000000000001251,9.8119963952109419125
19.678999999999998494,-0.015887151039360093707,19.678999999999998494,-0.0050148584621923838339,19.678999999999998494,9.8099767252759413338
19.69900000000000162,-0.013109715712643042751,19.69900000000000162,0.016072830399030641618,19.69900000000000162,9.8060788089056014627
19.717999999999999972,-0.0052282662654842869746,19.717999999999999972,-0.0052468819813395730853,19.717999999999999972,9.8068924781979447403
19.739999999999998437,-0.00050766954072965916282,19.739999999999998437,0.0020521628584728394268,19.739999999999998437,9.8071098523325925811
19.759000000000000341,-0.0082966873814956029753,19.759000000000000341,0.00085094922972427165624,19.759000000000000341,9.796797670277179293
19.778999999999999915,-0.0076096205197437628842,19.778999999999999915,0.0067233395659553780999,19.778999999999999915,9.8102664275782114345
19.800000000000000711,-0.0063812406422150960358,19.800000000000000711,0.0049043844529790226947,19.800000000000000711,9.8036665263875448773
19.818999999999999062,-0.010569899863895015207,19.818999999999999062,0.0030448845086845587569,19.818999999999999062,9.8039628666669216273
19.838000000000000966,-0.0040301791411756198585,19.838000000000000966,-0.00026763800597786723684,19.838000000000000966,9.8013631624728816405
19.859999999999999432,-0.0097189563135690049123,19.859999999999999432,0.0064409089466410541364,19.859999999999999432,9.8040238068198828358
19.879999999999999005,-0.0068448982707831349317,19.879999999999999005,0.0043438079018540539863,19.879999999999999005,9.7970126070776206717
19.899000000000000909,-0.0041563118331871106576,19.899000000000000909,0.016014964095061950955,19.899000000000000909,9.8025742828672477458
19.920000000000001705,-0.0221813184338242389,19.920000000000001705,-0.00058291420545551406174,19.920000000000001705,9.7984229813965555422
19.939000000000000057,0.018735525474805794777,19.939000000000000057,0.0033855013207096736234,19.939000000000000057,9.8035086456793791854
19.960000000000000853,-0.007698072134252885966,19.960000000000000853,0.0067709884538417692071,19.960000000000000853,9.8002277295757949105
19.978999999999999204,-0.017477114523325131684,19.978999999999999204,0.0015328542249405836817,19.978999999999999204,9.8055434319914578367
19.998999999999998778,-0.0025152044591152085753,19.998999999999998778,0.0052433065484131071224,19.998999999999998778,9.7949225666086547903
20.018999999999998352,0.0013205267892314517114,20.018999999999998352,0.00085204193781717547582,20.018999999999998352,9.7909594683168599261
20.039999999999999147,-0.015567612774719907787,20.039999999999999147,-0.0018343131755583701008,20.039999999999999147,9.7971628123744647354
20.059000000000001052,-0.0065481164220984417954,20.059000000000001052,0.008209543496986902722,20.059000000000001052,9.8004476521436050263
20.079000000000000625,-0.010249197544502583468,20.079000000000000625,0.00068339044138617042589,20.079000000000000625,9.8046098699506742946
20.100000000000001421,-0.0093668673906676241936,20.100000000000001421,-0.0080432345202657573591,20.100000000000001421,9.8019641275958608873
20.118999999999999773,-0.0031627158101895707851,20.118999999999999773,0.014730297118999008399,20.118999999999999773,9.8032260552378076568
20.138999999999999346,-0.0098983235775348746288,20.138999999999999346,0.0038618265295416254537,20.138999999999999346,9.8008087990047982885
20.15899999999999892,-0.0075139689116847426659,20.15899999999999892,0.009499442933512144624,20.15899999999999892,9.8055173247155646976
20.179999999999999716,-0.014478668817284962023,20.179999999999999716,0.0025349253191389803722,20.179999999999999716,9.7970253188985818582
20.199999999999999289,-0.0032965890243971205514,20.199999999999999289,0.011825771500338942699,20.199999999999999289,9.8063752441501801371
20.219000000000001194,-0.0026412320870180814106,20.219000000000001194,-0.0026655729138425469406,20.219000000000001194,9.808777267981575676
20.239000000000000767,0.0013772636817221254636,20.239000000000000767,0.011908963419082742308,20.239000000000000767,9.7947398725891119398
20.259000000000000341,0.0013489467847851879627,20.259000000000000341,0.0058276774379393981446,20.259000000000000341,9.8021876049067184766
20.280000000000001137,-0.012943252913583523644,20.280000000000001137,0.011189914882039441943,20.280000000000001137,9.8046216167877613401
20.298999999999999488,-0.012918912936831422611,20.298999999999999488,0.0092862079512779222012,20.298999999999999488,9.8030827194195175878
20.320000000000000284,-0.0048087562998994411861,20.320000000000000284,0.0017276125254455814741,20.320000000000000284,9.7940113511741220265
20.338999999999998636,-0.0073457083021429012484,20.338999999999998636,0.0061679591069647545301,20.338999999999998636,9.8055445617739511732
20.359000000000001762,-0.0061854795000951777462,20.359000000000001762,-0.0031682626255328215359,20.359000000000001762,9.7998974553375699514
20.379000000000001336,-0.01241224720875992206,20.379000000000001336,0.0064113506459007119434,20.379000000000001336,9.8033919268940152847
20.399000000000000909,-0.00099295624539738787384,20.399000000000000909,0.0034023112538183442576,20.399000000000000909,9.8021171967613422993
20.420999999999999375,-0.0083633760148865941841,20.420999999999999375,0.0084690853397308054479,20.420999999999999375,9.8032441713509204106
20.439000000000000057,-0.038808960016695731587,20.439000000000000057,-2.4607608172136190283e-05,20.439000000000000057,9.8007489790448847344
20.458999999999999631,0.030183733969949885084,20.458999999999999631,0.003913745931701994793,20.458999999999999631,9.7810859905940858994
20.480000000000000426,-0.016267075480581254243,20.480000000000000426,0.011658324115779696017,20.480000000000000426,9.8033484412064275659
20.5,-0.013901488556121260193,20.5,0.011832154110801825289,20.5,9.8022138606087700907
20.519999999999999574,-0.0033193190045250186432,20.519999999999999574,0.00071223543765010222106,20.519999999999999574,9.791371459822057588
20.539000000000001478,-0.0035821526721330405364,20.539000000000001478,-0.0022620021246722689726,20.539000000000001478,9.8009938450005140709
20.559000000000001052,-0.0062507635989205254795,20.559000000000001052,0.008401229126281417256,20.559000000000001052,9.8073403720425300634
20.579000000000000625,-0.0071993290140318060705,20.579000000000000625,0.0060045249450483275874,20.579000000000000625,9.8064363986974623089
20.600000000000001421,-0.01252154345143898645,20.600000000000001421,0.0024539051630719597302,20.600000000000001421,9.7939213568156979761
20.620000000000000995,-0.0060603685254675401448,20.620000000000000995,0.011236844765905723564,20.620000000000000995,9.7962543167570625968
20.640000000000000568,-0.017680252369398647555,20.640000000000000568,0.008482355922927679176,20.640000000000000568,9.7996331194053034608
20.660000000000000142,-0.0035546893417412509485,20.660000000000000142,0.011271329711156321401,20.660000000000000142,9.7973562283547668272
20.678999999999998494,-0.00565882404407065491,20.678999999999998494,0.0036761514411277626882,20.678999999999998494,9.8076719032236479023
20.699999999999999289,-0.00069012682046318675564,20.699999999999999289,0.0014726612057597546126,20.699999999999999289,9.8000062735991484431
20.719999999999998863,-0.0081274842891548466917,20.719999999999998863,0.0045636790731010149977,20.719999999999998863,9.8012021113912943804
20.739000000000000767,0.00031906879253776375752,20.739000000000000767,0.0044024532255838378161,20.739000000000000767,9.8048838716330326548
20.760000000000001563,-0.011118508851477372154,20.760000000000001563,0.0090072652423608522837,20.760000000000001563,9.7944369808791407195
20.780000000000001137,-0.0075294768135318766375,20.780000000000001137,0.0088771825317289568269,20.780000000000001137,9.7939368791914027668
20.798999999999999488,-0.0048503508068909783127,20.798999999999999488,0.0052657144891409832579,20.798999999999999488,9.8112505802622216322
20.818999999999999062,-0.0093273471122435978181,20.818999999999999062,0.0019348098175351413717,20.818999999999999062,9.7999073880720217744
20.839999999999999858,-0.005735302489744704274,20.839999999999999858,0.010296290768296072204,20.839999999999999858,9.802304379134772816
20.859000000000001762,-0.0082210549304607763443,20.859000000000001762,0.010186494137142778835,20.859000000000001762,9.8022549766646616121
20.879999999999999005,-0.0056945594113719860338,20.879999999999999005,0.00035974021173801773877,20.879999999999999005,9.7879485423220771168
20.899000000000000909,0.0018921537745905389963,20.899000000000000909,0.010060097743739988482,20.899000000000000909,9.8064159381850952713
20.920000000000001705,-0.0037557958294309728292,20.920000000000001705,0.0027838283761556495075,20.920000000000001705,9.7897852626411712151
20.939000000000000057,-0.0051464959741213123223,20.939000000000000057,0.011678267266423356455,20.939000000000000057,9.7999321071508376235
20.958999999999999631,-0.054372011251511982721,20.958999999999999631,0.001131147881770872346,20.958999999999999631,9.8033602087645181911
20.978999999999999204,0.042170049499428312323,20.978999999999999204,0.01068115485085107709,20.978999999999999204,9.7973844475179792113
20.998999999999998778,-0.026298489655089761496,20.998999999999998778,0.017739454806111186469,20.998999999999998778,9.8058372604894472602
21.019999999999999574,-0.014430707667755048387,21.019999999999999574,0.0043622691205567288783,21.019999999999999574,9.7917467793601709047
21.039999999999999147,-0.0046163485221956818139,21.039999999999999147,0.0063158629234849744671,21.039999999999999147,9.7940106875534986841
21.059999999999998721,-0.010566072337520901123,21.059999999999998721,0.012920708266200281802,21.059999999999998721,9.7926163057783028876
21.079000000000000625,-0.0084509994147595433878,21.079000000000000625,0.0049470565270709598166,21.079000000000000625,9.7954656988020492037
21.099000000000000199,-0.0087042637127164434324,21.099000000000000199,0.0036051741022729423373,21.099000000000000199,9.7960861325042802861
21.118999999999999773,-0.014073162037903990881,21.118999999999999773,0.0054194738520258476169,21.118999999999999773,9.8152535287476148085
21.140000000000000568,-0.010509948907842039251,21.140000000000000568,-0.00013058495677572515715,21.140000000000000568,9.8033673697000871528
21.15899999999999892,-0.0080110910245708103622,21.15899999999999892,0.002806879991347137164,21.15899999999999892,9.7981447467637945437
21.178999999999998494,-0.0092544229088584849946,21.178999999999998494,0.01104685344420159622,21.178999999999998494,9.8026908492261526362
21.19900000000000162,-0.010716152926177946458,21.19900000000000162,0.0059187681481858694238,21.19900000000000162,9.7988579154136896676
21.219999999999998863,-0.00057117712055360309389,21.219999999999998863,0.0081445783553150633699,21.219999999999998863,9.8041825614214292983
21.239999999999998437,0.0020696116351988399877,21.239999999999998437,0.010692864347728483002,21.239999999999998437,9.8004787117319196454
21.260000000000001563,-0.013831508589909780049,21.260000000000001563,0.0032266136939503998853,21.260000000000001563,9.7993443333326606393
21.278999999999999915,-0.0036124884009019649078,21.278999999999999915,0.0054282557720604328322,21.278999999999999915,9.8032140301763721624
21.298999999999999488,-0.011554463942627511697,21.298999999999999488,0.0021923785336865871456,21.298999999999999488,9.8033908847012956045
21.318999999999999062,-0.019110158693884417291,21.318999999999999062,0.002177279291864145979,21.318999999999999062,9.8013125545100798774
21.338999999999998636,-0.010439431808271946653,21.338999999999998636,0.0084575723878642650178,21.338999999999998636,9.7982372599795866108
21.359999999999999432,-0.0090451199732855085134,21.359999999999999432,0.0013491682732761499548,21.359999999999999432,9.7985650403093895733
21.379000000000001336,-0.013829305842025692297,21.379000000000001336,0.011027648800886300992,21.379000000000001336,9.7963632779018752217
21.399999999999998579,-0.014288612962655024285,21.399999999999998579,0.0082848815265817738612,21.399999999999998579,9.8003048972387372118
21.419000000000000483,0.00048956553920245868966,21.419000000000000483,0.0067506280008581857552,21.419000000000000483,9.7923124797448419798
21.440000000000001279,0.010242158680983375063,21.440000000000001279,0.0097373945701540211284,21.440000000000001279,9.8046750773904776111
21.458999999999999631,-0.003883549275970531612,21.458999999999999631,0.0021273853800681430566,21.458999999999999631,9.8026815488020453415
21.478999999999999204,-0.075571163324465118194,21.478999999999999204,0.0052852085098675383873,21.478999999999999204,9.8060138126321696461
21.5,0.049039138315835194282,21.5,0.0077849415130299883664,21.5,9.7884349788796800595
21.519999999999999574,-0.029719255012096466168,21.519999999999999574,0.0048264280437613892721,21.519999999999999574,9.8041919002161250773
21.539000000000001478,0.0074066809728542725225,21.539000000000001478,-0.00602959668513922218,21.539000000000001478,9.7832280312856703119
21.559000000000001052,-0.014428968878947710103,21.559000000000001052,0.0041838311863779606425,21.559000000000001052,9.7974873820970262983
21.579999999999998295,-0.015864978874541874748,21.579999999999998295,-0.00024497260405965742228,21.579999999999998295,9.8044546808842856223
21.599000000000000199,-0.011468527729830627418,21.599000000000000199,0.01463168693228867473,21.599000000000000199,9.8037225701210513051
21.618999999999999773,0.0011752700817117978788,21.618999999999999773,0.0061515878846420115819,21.618999999999999773,9.7962442915943537258
21.640000000000000568,-0.012876804699703529866,21.640000000000000568,0.0060419749876937647523,21.640000000000000568,9.8073215656430381415
21.65899999999999892,-0.011453823308224959573,21.65899999999999892,0.0079120710061141887037,21.65899999999999892,9.7999634839001892317
21.678999999999998494,-0.0016099207287747210535,21.678999999999998494,0.0034456135184095181521,21.678999999999998494,9.8002327239119235713
21.699999999999999289,-0.01054175337556774103,21.699999999999999289,0.0014569281033292857952,21.699999999999999289,9.8003936389107852989
21.717999999999999972,-0.0031103496544546624381,21.717999999999999972,0.0013526737616972707781,21.717999999999999972,9.8014445885254755098
21.739999999999998437,-0.0029022877942095747644,21.739999999999998437,0.0052606298406352733701,21.739999999999998437,9.7968260933424211601
21.760000000000001563,-0.0073028580721649126797,21.760000000000001563,0.011242980705144893505,21.760000000000001563,9.8105787201694241162
21.778999999999999915,-0.0022266618975688942141,21.778999999999999915,0.0071122358180820081236,21.778999999999999915,9.8064424617712511179
21.798999999999999488,-0.0054364453798929042797,21.798999999999999488,0.0081158811648460536109,21.798999999999999488,9.801906627453366383
21.820000000000000284,-0.01059217738283730649,21.820000000000000284,0.0037110164253647882383,21.820000000000000284,9.8027834507698230482
21.838999999999998636,-0.014595507089940078574,21.838999999999998636,0.006678014953800254401,21.838999999999998636,9.7985028761091719218
21.859999999999999432,-0.0060063150839717730292,21.859999999999999432,0.0079385135800518220189,21.859999999999999432,9.8007200932283495831
21.879999999999999005,-0.0095905666733773070609,21.879999999999999005,0.0087366396857347372595,21.879999999999999005,9.7910400281849465642
21.899999999999998579,-0.17224206675827447022,21.899999999999998579,0.0098564305505858106765,21.899999999999998579,9.8197660484281303894
21.919000000000000483,-0.086455478333952964776,21.919000000000000483,0.0031435615584829868646,21.919000000000000483,9.7918903815114379796
21.937999999999998835,0.015740680368343251683,21.937999999999998835,-0.005108796595579289529,21.937999999999998835,9.8185449045673749424
21.960000000000000853,0.010265238750888770747,21.960000000000000853,-0.0016394738774658699446,21.960000000000000853,9.8053947210040774962
21.978999999999999204,-0.0087078880544562385635,21.978999999999999204,-0.0036250381721437182486,21.978999999999999204,9.8132738230612641672
21.998999999999998778,-0.14820460896245546412,21.998999999999998778,0.00056438937715339097638,21.998999999999998778,9.7438243105323696369
22.019999999999999574,-2.1481927204079958038,22.019999999999999574,0.019583266211579342803,22.019999999999999574,9.4288476163542345176
22.039000000000001478,-1.9094513930000485136,22.039000000000001478,0.0056220822420242119039,22.039000000000001478,10.134870458110311731
22.059000000000001052,0.1964627943450341363,22.059000000000001052,-0.020522987589868944835,22.059000000000001052,9.8666523446632119487
22.079999999999998295,-0.030885644640255151272,22.079999999999998295,-0.0034871851415000610849,22.079999999999998295,9.7934464168957848784
22.099000000000000199,-0.48572442499309759212,22.099000000000000199,-0.023601481309535720515,22.099000000000000199,9.7334030912790243661
22.120000000000000995,-3.0705920344893704588,22.120000000000000995,0.014160108692238651193,22.120000000000000995,9.8154516506187476921
22.138999999999999346,-2.3117909900031623494,22.138999999999999346,0.020063809609443025717,22.138999999999999346,9.8618484873149014902
22.15899999999999892,0.029026523097813648061,22.15899999999999892,0.0083258907470658647526,22.15899999999999892,9.7947013401338480776
22.179999999999999716,-0.0059645745651822476216,22.179999999999999716,-0.00032280892084130560857,22.179999999999999716,9.8064732512793622021
22.199999999999999289,-0.56680445343513252698,22.199999999999999289,0.0051391866655428556504,22.199999999999999289,9.7841091568183404803
22.219999999999998863,-2.900759703808903911,22.219999999999998863,0.0043576436312769868675,22.219999999999998863,9.8224667044231512847
22.239999999999998437,0.011311521772023193366,22.239999999999998437,0.011501875984932151409,22.239999999999998437,9.7949202660087966166
22.259000000000000341,-0.0018653135831364830652,22.259000000000000341,0.011922930108564952154,22.259000000000000341,9.8049021706750085769
22.278999999999999915,0.00016198493559273566267,22.278999999999999915,0.0029704055561753719972,22.278999999999999915,9.8042224403203146466
22.300000000000000711,-0.56826914983280041316,22.300000000000000711,0.0044160887092402232798,22.300000000000000711,9.8048038122555691842
22.318999999999999062,-3.0209175684589837374,22.318999999999999062,-0.0024306059232312559465,22.318999999999999062,9.8047582694277828352
22.336999999999999744,-0.98829181482497474587,22.336999999999999744,-0.00017707566123128159682,22.336999999999999744,9.7970825774573988554
22.359000000000001762,-0.0048910256812083156841,22.359000000000001762,0.0090206456915407802477,22.359000000000001762,9.8154525986327669784
22.379999999999999005,-0.0070343216375176259927,22.379999999999999005,0.011981883997075407078,22.379999999999999005,9.7953776237097986979
22.399000000000000909,-0.53420294347946795099,22.399000000000000909,0.039750324247461374383,22.399000000000000909,9.8162521973815710652
22.419000000000000483,-2.2816902790651321098,22.419000000000000483,-0.028625545176687611226,22.419000000000000483,9.798072905676162847
22.439000000000000057,0.010699600979283114752,22.439000000000000057,0.023887503821861590103,22.439000000000000057,9.7907161132042404006
22.460000000000000853,-0.0087645523255098275323,22.460000000000000853,0.0081208917776912914466,22.460000000000000853,9.7958004616780804952
22.480000000000000426,0.0016292577332642382316,22.480000000000000426,-0.00039152808747366994561,22.480000000000000426,9.8000216907018309342
22.5,-0.39051733312153819044,22.5,0.011305723481112696718,22.5,9.8509709188452969642
22.518999999999998352,-3.1336474750609237816,22.518999999999998352,-0.0030805686156453538152,22.518999999999998352,9.7728305667966424153
22.538000000000000256,-0.18984925050225248677,22.538000000000000256,0.010699294039742620471,22.538000000000000256,9.7718517698154769846
22.559999999999998721,-0.006999149352743678533,22.559999999999998721,0.0024683122842440968596,22.559999999999998721,9.7915834108401167413
22.579000000000000625,0.00012453771808745330019,22.579000000000000625,-0.0043485851745484402353,22.579000000000000625,9.8088640896741292607
22.600000000000001421,-0.21548297469020163963,22.600000000000001421,0.010752542588796321077,22.600000000000001421,9.8813025717013420746
22.618999999999999773,-2.04117268234819349,22.618999999999999773,0.011850119247629246205,22.618999999999999773,9.7445096396346659873
22.640000000000000568,-0.51670380278236971439,22.640000000000000568,0.0055649380316194554941,22.640000000000000568,9.7933138606391469949
22.65899999999999892,0.034513724083740024429,22.65899999999999892,0.0084927739221737526265,22.65899999999999892,9.7968320590407405035
22.678999999999998494,0.0008453687396808447739,22.678999999999998494,0.0054220288260094021138,22.678999999999998494,9.8030969927781299589
22.69900000000000162,-0.036593089577145430924,22.69900000000000162,0.0084102682011568952181,22.69900000000000162,9.8436975021001806851
22.719000000000001194,-0.6739166269607088644,22.719000000000001194,0.0085139826391549648654,22.719000000000001194,9.769292523840702458
22.739999999999998437,-0.48077331596009842407,22.739999999999998437,-0.0036922607891207420011,22.739999999999998437,9.8000603154182019949
22.759000000000000341,-0.23567738895235529339,22.759000000000000341,-0.00090139321647011842221,22.759000000000000341,9.7988389793030759023
22.780000000000001137,-0.035668121637655876566,22.780000000000001137,0.013061680900243064982,22.780000000000001137,9.7890572072147818972
22.798999999999999488,-0.29079955356146602874,22.798999999999999488,0.016006237251809000283,22.798999999999999488,9.7233075442773841957
22.818999999999999062,-0.98871852795949521919,22.818999999999999062,0.05348330795120949388,22.818999999999999062,9.5199853693415157352
22.838999999999998636,-1.2939381398600848794,22.838999999999998636,0.023604577913448457349,22.838999999999998636,9.8219738494220898417
22.859000000000001762,-0.89911926935864483479,22.859000000000001762,-0.074985450275318707436,22.859000000000001762,10.082948902309507133
22.879000000000001336,0.099164362474577188999,22.879000000000001336,0.0059187368408261777433,22.879000000000001336,9.8655812639365390027
22.899000000000000909,0.059255022232716801633,22.899000000000000909,-0.014317944341568708197,22.899000000000000909,9.6740196079810036878
22.920000000000001705,-1.0323903240769454204,22.920000000000001705,0.0010994704287183394362,22.920000000000001705,9.8735696838382569496
22.939000000000000057,0.009446627720575900139,22.939000000000000057,0.0045894357525744040524,22.939000000000000057,9.8085604234754661945
22.958999999999999631,-0.0055669249346534336459,22.958999999999999631,-0.004446700529707497962,22.958999999999999631,9.8061885156786470219
22.978999999999999204,-0.022937997806661742511,22.978999999999999204,0.0026166098417400528685,22.978999999999999204,9.808464146873220102
23,-0.20141775945573534012,23,-0.0053951812541482273983,23,9.7115800591281580267
23.018999999999998352,-2.3087367229299244897,23.018999999999998352,-0.022285070419898606042,23.018999999999998352,9.8465564926750612784
23.039999999999999147,-0.029039601293810578253,23.039999999999999147,0.036036001532067075959,23.039999999999999147,9.8379976284714309998
23.059000000000001052,0.0070843104037425601305,23.059000000000001052,0.0097135279224869267023,23.059000000000001052,9.8023893019686987316
23.079000000000000625,-0.0073296065824117948018,23.079000000000000625,0.01643225385549468287,23.079000000000000625,9.797699354329315824
23.099000000000000199,-0.38777945848445410926,23.099000000000000199,0.0040004526505547071541,23.099000000000000199,9.7170488233908471898
23.118999999999999773,-0.92398262725484725522,23.118999999999999773,0.025782259470008450641,23.118999999999999773,9.8851405690407503357
23.140000000000000568,0.013881641007827565104,23.140000000000000568,-0.0014745823778065862524,23.140000000000000568,9.80746370112153798
23.160000000000000142,-0.00085236530809268103506,23.160000000000000142,0.015942478579829701124,23.160000000000000142,9.7960306190490022971
23.178999999999998494,-0.0099566702587309385136,23.178999999999998494,0.0076846036984298485978,23.178999999999998494,9.796402055622715821
23.198000000000000398,-0.45345007278441834542,23.198000000000000398,-0.0027067931395065750015,23.198000000000000398,9.7416667064595987569
23.219999999999998863,-1.2914735859163957166,23.219999999999998863,0.0060013276116177927469,23.219999999999998863,9.8586579462718599842
23.239999999999998437,0.020482559186493914938,23.239999999999998437,0.0049538858205224354722,23.239999999999998437,9.796984155046326137
23.259000000000000341,-0.0036429442945373115975,23.259000000000000341,0.0024355604291818214006,23.259000000000000341,9.8031186986980110021
23.278999999999999915,-0.009003488648857527199,23.278999999999999915,0.0037307807944786989217,23.278999999999999915,9.7971049925139599424
23.298999999999999488,-0.3131564272048346087,23.298999999999999488,0.0051964465750160325833,23.298999999999999488,9.7497813848952024074
23.318999999999999062,-0.69509783683431847212,23.318999999999999062,0.0056409120382709364294,23.318999999999999062,9.8507957075999392771
23.338999999999998636,-0.011337743725465311909,23.338999999999998636,0.0046009876780322995354,23.338999999999998636,9.8117473192223592093
23.359000000000001762,-0.0077104259551565674721,23.359000000000001762,0.012367675093914504494,23.359000000000001762,9.7924867220041846849
23.379000000000001336,-0.0026166775819992521557,23.379000000000001336,0.010927750828181785267,23.379000000000001336,9.8110440884372795978
23.399000000000000909,-0.48071899083315972057,23.399000000000000909,0.019607776723825132148,23.399000000000000909,9.758772038625407319
23.419000000000000483,-0.90876664217337532747,23.419000000000000483,-0.0083466223810552547802,23.419000000000000483,9.833047472897247232
23.440000000000001279,0.0055949962196562130073,23.440000000000001279,-0.00080078652147362681252,23.440000000000001279,9.7973978048784733375
23.457000000000000739,-0.010863737943716891138,23.457000000000000739,-0.0010851010779475821905,23.457000000000000739,9.8089183221239988342
23.478999999999999204,-0.0062426117197748581117,23.478999999999999204,0.019510753559320217349,23.478999999999999204,9.8031746216606485689
23.498999999999998778,-0.34982871161299072815,23.498999999999998778,0.0093378550875464101655,23.498999999999998778,9.7766230265224258744
23.518000000000000682,-0.49102420695294618502,23.518000000000000682,-0.0017386969850132936652,23.518000000000000682,9.8318799822582807479
23.539000000000001478,-0.016405972247911893708,23.539000000000001478,0.006470669807222172859,23.539000000000001478,9.7977954824238722153
23.559000000000001052,-0.0024163500056999555332,23.559000000000001052,0.0042176138490586092752,23.559000000000001052,9.8019449407803307395
23.579000000000000625,-0.0038296260268498617807,23.579000000000000625,0.0091016310061135391463,23.579000000000000625,9.7987142221599352609
23.599000000000000199,-0.30653138058058293502,23.599000000000000199,0.044674412898858567589,23.599000000000000199,9.7706377259062726637
23.618999999999999773,-0.46450900603644812437,23.618999999999999773,-0.020053395245841539735,23.618999999999999773,9.8196225375677705927
23.640000000000000568,-0.016111121014784537259,23.640000000000000568,0.007927269258276224001,23.640000000000000568,9.7921769998172738525
23.660000000000000142,-0.013683217921798180444,23.660000000000000142,0.005907308084493253543,23.660000000000000142,9.7999801192412920869
23.678999999999998494,-0.01054072883363613676,23.678999999999998494,0.018407022814461410087,23.678999999999998494,9.7966311141722801636
23.69900000000000162,-0.30093666191153034539,23.69900000000000162,0.03959769046028271261,23.69900000000000162,9.7689519295544737787
23.719000000000001194,-0.97606611875873050543,23.719000000000001194,-0.041715072624202376161,23.719000000000001194,9.8226992739063110349
23.739999999999998437,0.042034129038928988442,23.739999999999998437,0.018873953432408434316,23.739999999999998437,9.8029929712216006266
23.759000000000000341,0.076249347055786939609,23.759000000000000341,-0.047480677492437166343,23.759000000000000341,9.7555869564935591143
23.780000000000001137,-0.050047193606620812845,23.780000000000001137,0.027338637863373201758,23.780000000000001137,9.8003723213329809738
23.798999999999999488,-0.4124542035224325609,23.798999999999999488,0.16863146487143307328,23.798999999999999488,9.773010394490320607
23.818999999999999062,-0.22031246969866546959,23.818999999999999062,-0.1873780367153561055,23.818999999999999062,9.7853019267595566788
23.838999999999998636,0.031062349441008933748,23.838999999999998636,0.052964283677319264065,23.838999999999998636,9.7651647385127642309
23.859000000000001762,-0.016803199827065910116,23.859000000000001762,0.0062136715050183600681,23.859000000000001762,9.7947831861054250879
23.879000000000001336,-0.0243568475509663325,23.879000000000001336,-0.026273531438345657657,23.879000000000001336,9.8278448944581047186
23.899000000000000909,-0.35559876908202103785,23.899000000000000909,0.20211248251584962299,23.899000000000000909,9.7558223126389087554
23.919000000000000483,-0.4165554438842068441,23.919000000000000483,-0.19067525800618795317,23.919000000000000483,9.7086540686972107039
23.939000000000000057,0.13526216844070515499,23.939000000000000057,0.024550854957694920322,23.939000000000000057,9.8835658470024121414
23.958999999999999631,-0.03877512979217830752,23.958999999999999631,0.0071935685143615073905,23.958999999999999631,9.7977165952158724593
23.978999999999999204,-0.021844594478861729947,23.978999999999999204,-0.021950921053800698246,23.978999999999999204,9.8099121952665129243
24,-0.15661206324404342016,24,0.017368615631692937984,24,9.7666885139866170817
24.018999999999998352,0.16394651608783944452,24.018999999999998352,-0.00047384698550841271303,24.018999999999998352,10.033045104047182861
24.041000000000000369,0.94230570916872236076,24.041000000000000369,0.20886421471468030742,24.041000000000000369,9.7291212050981172865
24.059000000000001052,2.4555593860487263669,24.059000000000001052,0.61778201418603684303,24.059000000000001052,9.8793398931944160779
24.079000000000000625,2.3516998862516120816,24.079000000000000625,0.65700390787218088118,24.079000000000000625,9.8004798106249761958
24.099000000000000199,2.3688868034891301662,24.099000000000000199,0.65581134862046597256,24.099000000000000199,9.7962879537653986262
24.118999999999999773,2.4023551733422903176,24.118999999999999773,0.6436487674193958064,24.118999999999999773,9.8023892025594765443
24.138999999999999346,2.4601836795221934118,24.138999999999999346,0.62592266718922806579,24.138999999999999346,9.7968796105410635988
24.15899999999999892,2.496953869368702783,24.15899999999999892,0.59990449274857027273,24.15899999999999892,9.7848927139856076707
24.179999999999999716,2.5076356822917658107,24.179999999999999716,0.607723400704322958,24.179999999999999716,9.7891569579863215722
24.199999999999999289,2.4745042870258591172,24.199999999999999289,0.66369427651410750624,24.199999999999999289,9.7877934975332596679
24.219000000000001194,2.3970365211006190442,24.219000000000001194,0.72018441994892745672,24.219000000000001194,9.7671413570268033055
24.240999999999999659,2.26499771128522287,24.240999999999999659,0.8517247774984830766,24.240999999999999659,9.7333094067865726373
24.260000000000001563,1.6371118122624357394,24.260000000000001563,0.77223410698168615252,24.260000000000001563,9.7587548984653782469
24.280000000000001137,-0.18779380854568114567,24.280000000000001137,0.25581301927104760363,24.280000000000001137,9.7132979557013321426
24.300000000000000711,-0.83652145141729172817,24.300000000000000711,0.37527855751722244415,24.300000000000000711,9.6759850660107300513
24.321000000000001506,-1.4732923152567458658,24.321000000000001506,0.71705591057484119322,24.321000000000001506,9.5260720372166289849
24.339999999999999858,-1.9677728174695579,24.339999999999999858,1.1722332384654854387,24.339999999999999858,9.4906000455042232034
24.359000000000001762,-2.92345644392905335,24.359000000000001762,1.6715455275269059943,24.359000000000001762,9.3061698810611055421
24.379999999999999005,-6.5392684979198349993,24.379999999999999005,1.227419393873906639,24.379999999999999005,8.8406324255517532151
24.396999999999998465,-21.704854705503048962,24.396999999999998465,-22.83248828448327572,24.396999999999998465,12.734247679312925783
24.420000000000001705,-6.5664767461932553871,24.420000000000001705,-7.2011304795634520914,24.420000000000001705,7.4349797356659372838
24.440000000000001279,-1.8409806255202294523,24.440000000000001279,-0.89547512134899875935,24.440000000000001279,5.3659398267992486353
24.458999999999999631,-0.90957881583653910074,24.458999999999999631,-0.045511711726633007069,24.458999999999999631,15.218506469590888486
24.480000000000000426,0.22487394326855905669,24.480000000000000426,0.7554510004394069389,24.480000000000000426,10.566096788827351816
24.5,0.89915768588927580396,24.5,-0.048292543373097053527,24.5,9.7990055685605081948
24.519999999999999574,1.4274872383540533338,24.519999999999999574,0.43307238571300615826,24.519999999999999574,9.8005659258839887826
24.539000000000001478,1.8375139170259060517,24.539000000000001478,0.77898293299484688834,24.539000000000001478,9.8336130390322704642
24.559999999999998721,0.99004526273168913519,24.559999999999998721,0.023560273566101797016,24.559999999999998721,9.763170945283006219
24.579999999999998295,1.1114147012199988573,24.579999999999998295,0.083508400102896826467,24.579999999999998295,9.8071168988629278118
24.600000000000001421,1.2479483556841135528,24.600000000000001421,0.15381464653707799251,24.600000000000001421,9.8066780767243564298
24.620999999999998664,1.7725835480959539758,24.620999999999998664,0.2832852798895735269,24.620999999999998664,9.7949865862784193382
24.640000000000000568,1.7981339971666892019,24.640000000000000568,0.36732091803079397474,24.640000000000000568,9.7964801385147719515
24.660000000000000142,1.7280481861171850255,24.660000000000000142,0.43994201669016824718,24.660000000000000142,9.799284707844989839
24.679999999999999716,1.9088933015643223534,24.679999999999999716,0.54434809151486440726,24.679999999999999716,9.7909172549554224219
24.701000000000000512,2.109032905837026739,24.701000000000000512,0.69370285396037068004,24.701000000000000512,9.8023932480191184879
24.719999999999998863,2.3356720807894570946,24.719999999999998863,0.86449009731084036634,24.719999999999998863,9.8073245863821938428
24.739999999999998437,2.5919327596011672021,24.739999999999998437,1.0428656780267098192,24.739999999999998437,9.8065091934693064957
24.760000000000001563,2.4198354578854393004,24.760000000000001563,1.0108693963045232156,24.760000000000001563,9.8025580196659358734
24.780000000000001137,2.0975583685344791895,24.780000000000001137,0.88335686555544723486,24.780000000000001137,9.8044592356249520293
24.800000000000000711,2.0051450058622584116,24.800000000000000711,0.84876696605483992197,24.800000000000000711,9.8072272376286822038
24.818999999999999062,0.77170466583860730658,24.818999999999999062,-0.064184106925863196325,24.818999999999999062,9.7921729434837292416
24.839999999999999858,1.9723849740853567347,24.839999999999999858,0.88561132531477149143,24.839999999999999858,9.7937933580883864693
24.861999999999998323,2.4489071203028287549,24.861999999999998323,1.2815588801472428404,24.861999999999998323,9.7953923150932649122
24.879999999999999005,2.5899732495196166049,24.879999999999999005,1.4401225922079941011,24.879999999999999005,9.7655927341469030978
24.899000000000000909,2.8188080844328213814,24.899000000000000909,2.0326857048040904985,24.899000000000000909,9.7634416549135405461
24.920000000000001705,0.4166569414133218241,24.920000000000001705,2.4186294947866300298,24.920000000000001705,9.7889131975546916919
24.939000000000000057,2.1630774573631970092,24.939000000000000057,1.5451961245893495178,24.939000000000000057,9.7787310141811492059
24.960000000000000853,-0.026932026305981300596,24.960000000000000853,0.039129053552922080095,24.960000000000000853,9.7336193871984022508
24.978999999999999204,0.01798176544328000323,24.978999999999999204,-0.0027879184707378561539,24.978999999999999204,9.8389902707629914858
24.998999999999998778,-0.33019632803424109335,24.998999999999998778,-0.01000425539014128222,24.998999999999998778,9.8148585816980720153
25.019999999999999574,-0.35365626001186389882,25.019999999999999574,0.0065326968121093651615,25.019999999999999574,9.7612671477908108386
25.039999999999999147,-0.032172529002315666813,25.039999999999999147,-0.00059262967232476260193,25.039999999999999147,9.7869808771011062021
25.057999999999999829,-0.033534345593466241553,25.057999999999999829,0.0069993749816269741973,25.057999999999999829,9.7808323233591618617
25.079999999999998295,-0.060426570786653484302,25.079999999999998295,-0.0063337586366818132699,25.079999999999998295,9.7756420110137991486
25.100000000000001421,-0.092665937755994715053,25.100000000000001421,0.027053534799470761035,25.100000000000001421,9.7250069647937884554
25.120000000000000995,-0.23556704803973477214,25.120000000000000995,-0.014534402502804931456,25.120000000000000995,9.7396055409342352505
25.140000000000000568,0.048891214914396477487,25.140000000000000568,0.26656713223331784945,25.140000000000000568,9.5954520418929512005
25.160000000000000142,-0.20453924188642505499,25.160000000000000142,-0.11955199801589676267,25.160000000000000142,9.707016573844171603
25.179999999999999716,-0.50587795769189880524,25.179999999999999716,0.242236042897750109,25.179999999999999716,9.969365444632465767
25.199999999999999289,-1.3106610176298323367,25.199999999999999289,1.2148813251587304851,25.199999999999999289,9.85718724290678594
25.219999999999998863,-1.0952336952576842144,25.219999999999998863,0.71180467074290609819,25.219999999999998863,9.7086790161601133065
25.239999999999998437,-1.0588063820057365128,25.239999999999998437,0.64542573881541409619,25.239999999999998437,9.6688801447793100152
25.259000000000000341,-1.2698708475203148716,25.259000000000000341,0.80572840444577786823,25.259000000000000341,9.6390410903261649622
25.280000000000001137,-1.6121386759678930645,25.280000000000001137,1.116351277625560634,25.280000000000001137,9.6150335679937040112
25.298999999999999488,-2.2164568288699562082,25.298999999999999488,1.3793989979025518267,25.298999999999999488,9.6241783720326612439
25.318999999999999062,-2.6687377693603511197,25.318999999999999062,1.7549139787404397506,25.318999999999999062,9.5551734167477384574
25.339999999999999858,-3.4000419213407693242,25.339999999999999858,1.8626702921222555442,25.339999999999999858,9.5404749369694439309
25.359000000000001762,-2.9438420850664974715,25.359000000000001762,2.7397417926139722155,25.359000000000001762,9.0227305810857334478
25.379000000000001336,-1.8524768218147456,25.379000000000001336,2.6814829194432809878,25.379000000000001336,10.612059576966139218
25.399000000000000909,-1.0986827933794860446,25.399000000000000909,0.48421377439422075284,25.399000000000000909,10.331063309015496188
25.419000000000000483,-0.22495048008489246238,25.419000000000000483,-1.8083646953282024317,25.419000000000000483,10.542383435543069226
25.440000000000001279,-0.78384215574093507595,25.440000000000001279,-0.51169106521775364893,25.440000000000001279,8.8349957973213442131
25.460000000000000853,-0.68746395811479898974,25.460000000000000853,0.021154482014183143002,25.460000000000000853,10.771119661556772584
25.481000000000001648,-0.58335799707084479149,25.481000000000001648,0.13226179956011918648,25.481000000000001648,9.5815452801155629459
25.5,-0.41673896899823031914,25.5,0.043572980204368012835,25.5,10.10589466016294935
25.519999999999999574,0.10799888507006691341,25.519999999999999574,-0.071118372572130800213,25.519999999999999574,10.061845289964182371
25.539999999999999147,0.21277655594837180386,25.539999999999999147,-0.2961061468383722195,25.539999999999999147,9.9228711420608561866
25.559999999999998721,0.16040645828233376924,25.559999999999998721,-0.38872307373720760282,25.559999999999998721,9.8129798122756959344
25.579999999999998295,0.13511116514146448431,25.579999999999998295,-0.3464086126230379592,25.579999999999998295,9.7668384389944371549
25.600000000000001421,0.21677181452605776002,25.600000000000001421,-0.5718556969516610522,25.600000000000001421,9.7756273630589411994
25.620000000000000995,0.17229583292369493597,25.620000000000000995,-0.9775228718712087872,25.620000000000000995,9.8134252599257809635
25.640000000000000568,0.17491812936526246469,25.640000000000000568,-1.1289104832869667483,25.640000000000000568,9.8024464382987996913
25.660000000000000142,0.19146744226766504449,25.660000000000000142,-0.8388905122190770669,25.660000000000000142,9.7896242988570971733
25.679999999999999716,0.47922624179880202178,25.679999999999999716,-0.31228761734915599924,25.679999999999999716,9.8033335765359481684
25.69900000000000162,0.38628698644102399395,25.69900000000000162,-0.4863726918879059391,25.69900000000000162,9.7896429767163226643
25.719999999999998863,0.08191066351892276054,25.719999999999998863,-1.0983852642951750234,25.719999999999998863,9.8096580426366575267
25.739999999999998437,0.51868228230002799695,25.739999999999998437,-0.31154740037063094471,25.739999999999998437,9.8043864232215902632
25.760000000000001563,0.48010988497726303503,25.760000000000001563,-0.36419296152010888212,25.760000000000001563,9.8053407463720905213
25.780000000000001137,0.47707466377192270235,25.780000000000001137,-0.36542389955547849301,25.780000000000001137,9.8026692616533530611
25.800000000000000711,0.44482261520258475906,25.800000000000000711,-0.41281045063357302283,25.800000000000000711,9.7784119800997206795
25.818999999999999062,-0.07607732722863837227,25.818999999999999062,-1.4057575032469606935,25.818999999999999062,9.8106728888937873023
25.839999999999999858,0.54528637070407626197,25.839999999999999858,-0.32174885922209550682,25.839999999999999858,9.8116910221821722615
25.859999999999999432,0.51012870413171285122,25.859999999999999432,-0.37626033614936693628,25.859999999999999432,9.8005072630729870298
25.879999999999999005,0.51420939059529258142,25.879999999999999005,-0.37818111759688893825,25.879999999999999005,9.8046380501592054202
25.902000000000001023,0.39100910591017823403,25.902000000000001023,-0.55724293886821163468,25.902000000000001023,9.801241230934861548
25.920000000000001705,0.33780180991368302656,25.920000000000001705,-0.75558467858729294608,25.920000000000001705,9.8072034665077847393
25.940999999999998948,0.53342045974270702047,25.940999999999998948,-0.389117014961977703,25.940999999999998948,9.805036916282489301
25.960000000000000853,0.4437249544872735596,25.960000000000000853,-0.31982496055418518921,25.960000000000000853,9.8008471826255796344
25.980000000000000426,-0.00250131674227065115,25.980000000000000426,-0.0033887921385194891277,25.980000000000000426,9.8051289744288947503
26.003000000000000114,-0.15690443211578955496,26.003000000000000114,0.0095427522475366281796,26.003000000000000114,9.7957509643898248441
26.018999999999998352,-0.082706097435587128119,26.018999999999998352,0.012744218812963864496,26.018999999999998352,9.8106524468503923941
26.039000000000001478,-0.011106241379288282409,26.039000000000001478,0.0081543309093795070253,26.039000000000001478,9.8056932473538189754
26.059999999999998721,0.0023511046349159385287,26.059999999999998721,0.0014232565171453644224,26.059999999999998721,9.8047478122428852743
26.079999999999998295,-0.0089928056014150388464,26.079999999999998295,0.0056626942085586731701,26.079999999999998295,9.8040529590580778319
26.100000000000001421,-0.0038350504435351218287,26.100000000000001421,0.014175353518279421028,26.100000000000001421,9.8004954770705534628
26.120999999999998664,-0.0054808214472883273402,26.120999999999998664,0.0039261527064361418163,26.120999999999998664,9.8047773366751442836
26.140000000000000568,-0.0030765142797102868616,26.140000000000000568,-0.0065993272049152664968,26.140000000000000568,9.800917065128079031
26.160000000000000142,-0.0072240223532896033834,26.160000000000000142,-0.0076211108295668739121,26.160000000000000142,9.8020140232981098904
26.179999999999999716,-0.0015543187424963095071,26.179999999999999716,-0.0013555191205973622995,26.179999999999999716,9.8123313192470593691
26.199999999999999289,-0.013842883774863722068,26.199999999999999289,0.0053929767079530562673,26.199999999999999289,9.7987271139526903596
26.219000000000001194,-0.0071108151816652882121,26.219000000000001194,0.0038097198653624670533,26.219000000000001194,9.7980871445639969863
26.239000000000000767,-0.0092092631854196888019,26.239000000000000767,-0.0025161167337224448794,26.239000000000000767,9.8126634617926207227
26.259000000000000341,-0.011591515030447897827,26.259000000000000341,9.4009577743212145023e-05,26.259000000000000341,9.7971200537577907141
26.280000000000001137,-0.011638355855183326465,26.280000000000001137,0.0052982323130588548227,26.280000000000001137,9.8007323314600114372
26.298999999999999488,-0.0041731570051446497185,26.298999999999999488,0.011484607791351551104,26.298999999999999488,9.7995386719818906585
26.320000000000000284,-0.011954912510665646752,26.320000000000000284,0.0010795128564062650509,26.320000000000000284,9.7988409070583202265
26.339999999999999858,-0.010831749163226178992,26.339999999999999858,0.0093917047830782401235,26.339999999999999858,9.7943651162145926037
26.359999999999999432,-0.014178991113070946867,26.359999999999999432,-0.0015096164064578995387,26.359999999999999432,9.7971978891630300268
26.379999999999999005,-0.0068820872138511488686,26.379999999999999005,0.0010886360953460260271,26.379999999999999005,9.7982013766738358385
26.399999999999998579,-0.014470558161834227995,26.399999999999998579,0.0075646817651671034721,26.399999999999998579,9.7973692974821631196
26.420000000000001705,-0.0064736660974979978386,26.420000000000001705,0.0089158519121041654443,26.420000000000001705,9.799319927524651419
26.440000000000001279,-0.0051297131191748342183,26.440000000000001279,0.0062131169586768829685,26.440000000000001279,9.806193370902331452
26.460000000000000853,0.0027356938743033389072,26.460000000000000853,0.005420805647218151363,26.460000000000000853,9.8016250945971261643
26.478000000000001535,-0.00089299610368631697835,26.478000000000001535,0.0043535602824258503099,26.478000000000001535,9.7947460662568595069
26.5,-0.0087895324909844398109,26.5,0.0087217449895929111126,26.5,9.7998137139771870352
26.519999999999999574,-0.0050284684187460737537,26.519999999999999574,0.012933617924790479989,26.519999999999999574,9.7960705780267947063
26.539999999999999147,-0.012047162713178044546,26.539999999999999147,0.0064994626009266531774,26.539999999999999147,9.7985632613403712554
26.559000000000001052,-0.014228266597502179508,26.559000000000001052,0.0016368016437090129704,26.559000000000001052,9.8047108881341458186
26.579999999999998295,-0.012495927859131660334,26.579999999999998295,0.0063344767538347076727,26.579999999999998295,9.8061860567027157032
26.600000000000001421,-0.020610254951762052578,26.600000000000001421,0.012588938137890755276,26.600000000000001421,9.801417622005271113
26.620000000000000995,-0.01109263721502615381,26.620000000000000995,0.0015041478581857006206,26.620000000000000995,9.790282151820223433
26.640000000000000568,-0.016763377839998570146,26.640000000000000568,0.0018058804632218551298,26.640000000000000568,9.8000368290980865993
26.660000000000000142,-0.0065014748176513478123,26.660000000000000142,-0.0060320142577608027584,26.660000000000000142,9.8001484433781502759
26.679999999999999716,-0.0033021320306933156681,26.679999999999999716,0.0016815511110501932257,26.679999999999999716,9.7957709855478132255
26.699999999999999289,-0.012556443353919114966,26.699999999999999289,0.0020061946059060204416,26.699999999999999289,9.7940828805050692552
26.719999999999998863,-0.00075235434133631012843,26.719999999999998863,-0.0034167820756170132375,26.719999999999998863,9.8053604152072519895
26.739999999999998437,-0.0052692466430517906351,26.739999999999998437,0.010438941542177624169,26.739999999999998437,9.8043395942256577058
26.760000000000001563,-0.0067847156427472046086,26.760000000000001563,0.0037260700522769780486,26.760000000000001563,9.8013829622800852093
26.780000000000001137,-0.0033996007889573304737,26.780000000000001137,0.0085608029515000932941,26.780000000000001137,9.8020180644002667947
26.800000000000000711,0.0056419357074341085212,26.800000000000000711,0.0037079217155864740638,26.800000000000000711,9.8064895414217918557
26.820000000000000284,-0.0092623264215434090996,26.820000000000000284,0.0050658721938956216904,26.820000000000000284,9.8022180608107127853
26.838999999999998636,-0.0087560172935016947898,26.838999999999998636,-0.00059249153290052308275,26.838999999999998636,9.7989739900462975442
26.859999999999999432,-0.0029422327300755776042,26.859999999999999432,0.013126331962474336104,26.859999999999999432,9.7964413335464772814
26.879999999999999005,-0.0079518490512221328553,26.879999999999999005,0.0014067934476503605058,26.879999999999999005,9.7829154414116139549
26.899999999999998579,-0.010377834729274693429,26.899999999999998579,0.018496999274637996452,26.899999999999998579,9.7985985721980117802
26.920999999999999375,-0.0098280594172513186663,26.920999999999999375,0.005340241185213107783,26.920999999999999375,9.8012474015216088929
26.939000000000000057,-0.010094096863656407126,26.939000000000000057,0.0054893078079113564322,26.939000000000000057,9.8019024506040626221
26.960000000000000853,-0.015414083956493030911,26.960000000000000853,0.0068377142816521234436,26.960000000000000853,9.799900724721657852
26.980000000000000426,-0.0068364982923213831259,26.980000000000000426,0.00926364207854949058,26.980000000000000426,9.7949177342191546813
27,-0.0036743774151983014595,27,0.0069159519171820022648,27,9.7978034270506775272
27.018000000000000682,0.0043061358226307690569,27.018000000000000682,0.012462616650438721258,27.018000000000000682,9.7972027121851592568
27.039999999999999147,-0.015433772593416416816,27.039999999999999147,0.0066605992547541436818,27.039999999999999147,9.8002840858793529577
27.059999999999998721,-0.011894428703192688399,27.059999999999998721,0.0072194629731103607956,27.059999999999998721,9.7996958309262343079
27.079999999999998295,-0.0048114866878294932501,27.079999999999998295,0.00131068130823921861,27.079999999999998295,9.7957026597731182704
27.100000000000001421,-0.0015424813714821129264,27.100000000000001421,0.0060823136072507087008,27.100000000000001421,9.7888247802845089751
27.120000000000000995,-0.0044345380226328140472,27.120000000000000995,-0.00072641290431953598611,27.120000000000000995,9.7910287805334306199
27.140000000000000568,-0.0056266970459536280041,27.140000000000000568,0.011350186180284237147,27.140000000000000568,9.8000646031058753493
27.160000000000000142,-0.010350579161012441604,27.160000000000000142,0.0038720788591104049296,27.160000000000000142,9.7842411019257511384
27.179999999999999716,-0.01510995548320807555,27.179999999999999716,0.010037485382743689677,27.179999999999999716,9.7939614378061019551
27.19900000000000162,-0.0059604941773953373438,27.19900000000000162,0.0056685353890585715372,27.19900000000000162,9.7951785680545473411
27.219999999999998863,-0.0021096804379614228324,27.219999999999998863,0.0055552644885287650461,27.219999999999998863,9.8048245052120410747
27.239999999999998437,-0.0011579908816367534205,27.239999999999998437,0.0043856161911612449866,27.239999999999998437,9.798431736167154682
27.260999999999999233,-0.0056926566515575430932,27.260999999999999233,0.0055113713453277032167,27.260999999999999233,9.7826349358616369045
27.280000000000001137,-0.020005014435600348977,27.280000000000001137,0.0045937908238216675072,27.280000000000001137,9.7917609644767917843
27.300000000000000711,-0.012612999316975003275,27.300000000000000711,0.0036581809959930914125,27.300000000000000711,9.7937141440191908259
27.320000000000000284,-0.0061733816513866654474,27.320000000000000284,0.011312358474736898886,27.320000000000000284,9.7939074693152861073
27.339999999999999858,-0.0069210948100064543023,27.339999999999999858,-0.0057706667974255715717,27.339999999999999858,9.7841272600253059721
27.359999999999999432,-0.00077269508411485386332,27.359999999999999432,0.0045287318494924401827,27.359999999999999432,9.7929901497924305431
27.379999999999999005,-0.011101864943038296241,27.379999999999999005,0.022929534177610830237,27.379999999999999005,9.8154924869596431591
27.399999999999998579,0.0044881152662559747196,27.399999999999998579,-0.0058262288020652017173,27.399999999999998579,9.7669138178320125121
27.417999999999999261,-0.015973930353784852876,27.417999999999999261,0.0056956410561230848971,27.417999999999999261,9.7984322068203866252
27.440000000000001279,-0.0091815923435366250671,27.440000000000001279,0.013824472477221357025,27.440000000000001279,9.8405259063810355258
27.460000000000000853,0.0038865821241968203335,27.460000000000000853,-0.018273645801626204471,27.460000000000000853,9.7627052165688557039
27.480000000000000426,-0.022053584162666013679,27.480000000000000426,0.026834164383202310789,27.480000000000000426,9.8183634048229322389
27.5,-0.014509416311266534055,27.5,0.0023134027206659956225,27.5,9.8025321437388566181
27.519999999999999574,-0.012072519748378010909,27.519999999999999574,0.014481164304107058474,27.519999999999999574,9.8037710116061855814
27.539999999999999147,-0.020344672085574035114,27.539999999999999147,0.012469337534766434736,27.539999999999999147,9.7992910575484035718
27.559999999999998721,-0.021357191307508224809,27.559999999999998721,0.0052680397631482264384,27.559999999999998721,9.7887971785540948133
27.579999999999998295,-0.020108658912898688675,27.579999999999998295,0.00037842880588619554755,27.579999999999998295,9.7928873409728129928
27.600000000000001421,-0.012404496360499412538,27.600000000000001421,-0.0011302974067164948437,27.600000000000001421,9.7890367880541475643
27.618999999999999773,-0.01205719669079370962,27.618999999999999773,-0.00025920109911674316105,27.618999999999999773,9.7892998232839882888
27.638000000000001677,-0.016085944955087874697,27.638000000000001677,0.0057185180391429307756,27.638000000000001677,9.783996949873857929
27.660000000000000142,-0.017994683254794609922,27.660000000000000142,0.0078860204538478279046,27.660000000000000142,9.7976991249940379447
27.679999999999999716,-0.022817872597939443946,27.679999999999999716,-0.0054823888700964622592,27.679999999999999716,9.7999965293690802781
27.699999999999999289,-0.027248914218267125675,27.699999999999999289,-0.00040002790577346129114,27.699999999999999289,9.7864234983609073026
27.719000000000001194,-0.025310062665732616094,27.719000000000001194,-0.0043902948371027216562,27.719000000000001194,9.7902528129436223736
27.739000000000000767,-0.038137984567461744034,27.739000000000000767,0.0026581083500910110407,27.739000000000000767,9.7914534980510712359
27.759000000000000341,-0.048483498152295800843,27.759000000000000341,0.097806897261934991339,27.759000000000000341,9.7802342000438748926
27.780000000000001137,-0.15033181148429075602,27.780000000000001137,0.28383792863555012964,27.780000000000001137,9.7244885874722069019
27.800000000000000711,0.030220850197184841862,27.800000000000000711,-0.092687450350645794739,27.800000000000000711,9.6620932305265299078
27.820000000000000284,0.057800397417475279926,27.820000000000000284,0.016047738627538627593,27.820000000000000284,9.7758393835683712325
27.839999999999999858,-0.139855381459289968,27.839999999999999858,0.055513786883296827035,27.839999999999999858,9.7659601475448507557
27.859999999999999432,-0.014221249635792019769,27.859999999999999432,0.054280633277282969162,27.859999999999999432,9.6784388537743399894
27.879999999999999005,-0.12576050251203138575,27.879999999999999005,-0.20449352400793960327,27.879999999999999005,9.7516231241936175422
27.899999999999998579,-0.050940014476642217489,27.899999999999998579,0.059075340629119670044,27.899999999999998579,9.8789013015750484215
27.920000000000001705,-0.23516269182954774308,27.920000000000001705,-0.095447662231672447675,27.920000000000001705,9.7639988094834304633
27.939000000000000057,-0.38100701728880048691,27.939000000000000057,-0.039482837432523731902,27.939000000000000057,9.9764707115700783646
27.958999999999999631,-0.72182970161160298073,27.958999999999999631,1.0642887853891820349,27.958999999999999631,9.925464434472278441
27.980000000000000426,-0.85079129328885161332,27.980000000000000426,0.68755107957042171929,27.980000000000000426,9.8381949254493630264
28,-0.72426494668406027344,28,0.49765118543260528083,28,9.7714970858970122691
28.019999999999999574,-0.6926801759405762926,28.019999999999999574,0.47101983810404457476,28.019999999999999574,9.7533825635249424835
28.039999999999999147,-0.72818278633041955139,28.039999999999999147,0.54280296117735982175,28.039999999999999147,9.7677050989620362031
28.062999999999998835,-0.83279698472264085396,28.062999999999998835,0.66653169505545450946,28.062999999999998835,9.7745759001651624231
28.079999999999998295,-0.81597918310784467444,28.079999999999998295,0.83947224219021565617,28.079999999999998295,9.7866061385174667464
28.100000000000001421,-0.5629071905473003179,28.100000000000001421,0.96081563516640255962,28.100000000000001421,9.8992108856863900712
28.121999999999999886,-0.28379513984068527321,28.121999999999999886,-0.59882171250757731951,28.121999999999999886,9.7166557195386147328
28.140000000000000568,-0.047307877791190104666,28.140000000000000568,0.050620332825983327396,28.140000000000000568,9.7276956227594109095
28.15899999999999892,-0.071016440382055637248,28.15899999999999892,-0.021384360249527268466,28.15899999999999892,9.7642244878280699538
28.178999999999998494,-0.042911469593515008669,28.178999999999998494,0.011927457646455259799,28.178999999999998494,9.7707542827893902881
28.199999999999999289,-0.041052807663653899384,28.199999999999999289,-0.13200123434821478541,28.199999999999999289,9.9138470253646566732
28.219999999999998863,-0.10008847181786137415,28.219999999999998863,-0.78264166564222392708,28.219999999999998863,9.6812039815316026647
28.240999999999999659,-0.095957236436899281951,28.240999999999999659,0.030555356535461476036,28.240999999999999659,9.6192793472062092519
28.260000000000001563,-0.17662399180047744229,28.260000000000001563,-0.24893709523971147002,28.260000000000001563,9.5746360085193611411
28.280000000000001137,-0.21420111135434810601,28.280000000000001137,-1.7950093132980824429,28.280000000000001137,9.7268846703287223932
28.300000000000000711,0.47901766246865223886,28.300000000000000711,1.7989063124014670336,28.300000000000000711,9.5530428537132152655
28.320000000000000284,0.094766347618505858419,28.320000000000000284,0.10670786581061147968,28.320000000000000284,10.831905928276867712
28.339999999999999858,-0.52156610552258919622,28.339999999999999858,-0.8031710556972246895,28.339999999999999858,9.6563602257836684828
28.359000000000001762,-0.21277016636874065969,28.359000000000001762,-0.25627116345005845899,28.359000000000001762,9.2495212782616391678
28.379999999999999005,0.22010478406121700146,28.379999999999999005,0.83498571513836250535,28.379999999999999005,9.3782767406700155988
28.399999999999998579,0.3858108859005049962,28.399999999999998579,0.15415415719189226595,28.399999999999998579,10.947739475629605366
28.420000000000001705,0.12591904798539671484,28.420000000000001705,-1.1307050518666494909,28.420000000000001705,9.7887133900815719301
28.440000000000001279,-0.69913893928937742572,28.440000000000001279,-0.51887453770172187184,28.440000000000001279,9.2948767578662110367
28.460000000000000853,0.33456962313937682607,28.460000000000000853,0.83367788705050616116,28.460000000000000853,9.7551339556064728953
28.478999999999999204,0.21539330643428156176,28.478999999999999204,-0.14904730267165078317,28.478999999999999204,10.279942849332133648
28.498999999999998778,0.011775124871806041948,28.498999999999998778,-0.1688813041124693215,28.498999999999998778,9.8581916340526500875
28.519999999999999574,-0.089444763153600226335,28.519999999999999574,-0.20467305359702372969,28.519999999999999574,9.7515256362284183922
28.539000000000001478,0.010518305716369309721,28.539000000000001478,-0.1785526912392766119,28.539000000000001478,9.7968855177450286931
28.559999999999998721,0.030575415384031249394,28.559999999999998721,-0.1920260111308419726,28.559999999999998721,9.7849986493643896779
28.579999999999998295,0.020679268441727856331,28.579999999999998295,-0.18772731219105115441,28.579999999999998295,9.7756662172683803647
28.600000000000001421,0.06429544389657697312,28.600000000000001421,-0.14789812966851473286,28.600000000000001421,9.9207231122988623895
28.618999999999999773,-0.13832461981854532462,28.618999999999999773,0.085240722698559950876,28.618999999999999773,9.763954878222730116
28.640000000000000568,-0.030129071637450363652,28.640000000000000568,-0.02451452690025889003,28.640000000000000568,9.8046277484116544088
28.660000000000000142,-0.00039906673719823453593,28.660000000000000142,-0.043257099076602037457,28.660000000000000142,9.7840310309972444713
28.678999999999998494,-0.010939140162446882309,28.678999999999998494,-0.023585555553429060627,28.678999999999998494,9.7976802935345332912
28.69900000000000162,0.048900559664062065446,28.69900000000000162,-0.020500429226404680294,28.69900000000000162,9.8905934267835124984
28.719000000000001194,-0.026024471344230422354,28.719000000000001194,0.072341221521101617409,28.719000000000001194,9.7320654597519489215
28.739000000000000767,-0.17502416685311536493,28.739000000000000767,-0.16825254936208192125,28.739000000000000767,9.7500352606024236479
28.759000000000000341,0.0086536100323402736362,28.759000000000000341,-0.61523959971523112245,28.759000000000000341,9.7067867010987800569
28.780000000000001137,0.16440158951782130048,28.780000000000001137,0.017202598124037491584,28.780000000000001137,9.7619884631453288648
28.800000000000000711,-0.099707927735743190345,28.800000000000000711,0.012491617826606814246,28.800000000000000711,9.859299507518924699
28.820000000000000284,-0.061577852031766529273,28.820000000000000284,-0.17763444271400177787,28.820000000000000284,9.7769869998773835107
28.839999999999999858,-0.31363684468730118615,28.839999999999999858,-0.26617034108245601898,28.839999999999999858,9.6277973779306424973
28.859000000000001762,-0.091262337774079230202,28.859000000000001762,0.0038810997387545543257,28.859000000000001762,9.6697035933794488471
28.879999999999999005,-0.045640752561612221716,28.879999999999999005,0.10742248934211326428,28.879999999999999005,9.7301009075003150883
28.899999999999998579,0.026685979980028307068,28.899999999999998579,0.097703689847956382009,28.899999999999998579,9.8191206438619520469
28.920000000000001705,0.15457882746224974047,28.920000000000001705,-0.12973478455446213475,28.920000000000001705,9.8794793952682660176
28.940000000000001279,-0.065473789618642933008,28.940000000000001279,-0.08029889721352724552,28.940000000000001279,9.8202813871267959911
28.960999999999998522,-0.025699832095673454113,28.960999999999998522,0.0042031181816116133798,28.960999999999998522,9.7390698511442703733
28.980000000000000426,0.0047899927605803156033,28.980000000000000426,0.03550345976396324793,28.980000000000000426,9.7463393303973866466
29,0.017624275283044769924,29,-0.046115120185086844184,29,9.9569925230999363208
29.019999999999999574,0.0032461692150539799701,29.019999999999999574,-0.076190809277044524439,29.019999999999999574,9.7636970737351838068
29.039999999999999147,0.011312653257154640235,29.039999999999999147,0.027017376288712473265,29.039999999999999147,9.7561821170513294277
29.059999999999998721,-0.011712534842220453241,29.059999999999998721,-0.033379539227871957152,29.059999999999998721,9.9174016948454948306
29.077999999999999403,-0.038564196581914712836,29.077999999999999403,-0.0062439319077943183228,29.077999999999999403,9.7527371755651337537
29.100000000000001421,0.026121972596641868103,29.100000000000001421,0.028292037466706193571,29.100000000000001421,9.7742325148002553448
29.120000000000000995,0.030851316174622542277,29.120000000000000995,-0.019634217832671985865,29.120000000000000995,9.821674139437030604
29.140000000000000568,-0.0017071036106433598416,29.140000000000000568,-0.011556885027137090566,29.140000000000000568,9.804642534523296149
29.15899999999999892,0.024866309340405713668,29.15899999999999892,0.011879731283381505039,29.15899999999999892,9.7842015794695083031
29.179999999999999716,-0.017833544379470756686,29.179999999999999716,-0.034918973697401961553,29.179999999999999716,9.9254657233420999773
29.199999999999999289,-0.038253589696239750917,29.199999999999999289,-0.0079890119369178738684,29.199999999999999289,9.779555194385830319
29.221000000000000085,0.026876122502608082443,29.221000000000000085,-0.024967232866491918808,29.221000000000000085,9.8733535118245860929
